Jaz Data File
++++++++++++++++++++++++++++++++++++
Date: Mon Apr 22 19:27:22 2019
User: jaz
Dark Spectrum Present: Yes
Reference Spectrum Present: Yes
Processed Spectrum Present: Yes
Spectrometers: JAZA2928
Integration Time (usec): 40000 (JAZA2928)
Spectra Averaged: 10 (JAZA2928)
Boxcar Smoothing: 5 (JAZA2928)
Correct for Electrical Dark: No (JAZA2928)
Strobe/Lamp Enabled: Yes (JAZA2928)
Correct for Detector Non-linearity: No (JAZA2928)
Correct for Stray Light: No (JAZA2928)
Number of Pixels in Processed Spectrum: 2048
>>>>>Begin Processed Spectral Data<<<<<
W	D	R	S	P
190.104553	0.000000	0.000000	0.000000	0.000000
190.488098	0.000000	0.000000	0.000000	0.000000
190.871613	1077.423828	1084.994751	1058.023682	-256.245453
191.255096	1080.499390	1079.079956	1073.875000	466.692474
191.638535	0.000000	0.000000	0.000000	0.000000
192.021942	903.294739	908.865295	889.873779	-240.926727
192.405334	1004.317993	1010.039124	990.789490	-236.465561
192.788696	1107.599609	1112.288330	1092.565552	-320.643066
193.172012	1111.471069	1116.052246	1098.372681	-285.917572
193.555313	1116.138306	1118.654663	1104.136841	-476.937988
193.938568	1122.375488	1122.956299	1107.857544	-2499.600586
194.321793	1125.386597	1126.505127	1110.524780	-1328.691528
194.704987	1126.655640	1129.473267	1112.223755	-512.200012
195.088150	1127.429810	1129.387207	1113.621948	-705.419373
195.471298	1126.505249	1131.710083	1114.654175	-227.693604
195.854401	1127.494629	1132.054199	1115.880249	-254.725311
196.237457	1129.064575	1128.957031	1117.988037	10299.545898
196.620499	1129.043091	1130.441040	1116.633057	-887.731384
197.003494	1127.171875	1130.140137	1115.192017	-403.598450
197.386475	1126.999878	1131.129395	1114.052002	-313.544586
197.769424	1126.419067	1132.441406	1110.374146	-266.423431
198.152344	1123.365112	1134.527832	1110.890381	-111.753510
198.535217	1120.934570	1135.947266	1110.352661	-70.486404
198.918076	1121.149658	1138.098022	1110.782715	-61.167812
199.300903	1121.838013	1139.668091	1110.266724	-64.897575
199.683670	1123.838257	1144.421387	1111.406616	-60.397232
200.066422	1123.730591	1145.023560	1111.256104	-58.585007
200.449142	1121.967041	1147.884277	1112.481934	-36.597679
200.831848	1122.719849	1149.174683	1115.321045	-27.967682
201.214508	1123.537109	1149.002686	1116.310425	-28.378248
201.597137	1122.891846	1150.120972	1116.030762	-25.197592
201.979736	1122.612183	1152.874146	1116.783447	-19.260929
202.362274	1122.633789	1149.088623	1116.353394	-23.740068
202.744827	1121.257202	1147.625977	1112.438965	-33.441967
203.127319	1119.171021	1146.055908	1112.998169	-22.960302
203.509796	1116.525513	1142.786621	1113.191772	-12.694591
203.892227	1113.406860	1136.872070	1112.761597	-2.749874
204.274643	1110.567749	1137.151489	1112.288452	6.472765
204.657013	1110.804321	1134.850342	1108.567505	-9.302231
205.039352	1108.223389	1132.441406	1106.072510	-8.881317
205.421661	1104.932617	1135.796753	1103.534668	-4.529365
205.803940	1103.964722	1135.516968	1103.599121	-1.158715
206.186188	1103.771118	1133.344727	1103.384033	-1.308887
206.568405	1101.921387	1134.248169	1101.663452	-0.797897
206.950592	1103.297974	1136.119263	1104.696045	4.259648
207.332748	1101.340698	1133.882446	1102.566772	3.767696
207.714859	1099.964233	1136.269775	1103.212036	8.945749
208.096939	1099.598511	1137.732422	1101.082642	3.891893
208.478989	1098.695190	1137.280762	1099.770630	2.787154
208.861008	1098.931763	1138.291626	1101.835449	7.377278
209.243011	1099.318848	1140.765137	1103.749634	10.690429
209.624969	1098.652222	1139.410034	1107.642700	22.058294
210.006897	1098.480103	1140.377808	1107.040405	20.431437
210.388794	1097.469238	1141.345703	1106.846802	21.372650
210.770645	1097.426270	1141.603882	1105.147583	17.477888
211.152481	1097.146606	1140.549927	1104.975586	18.037743
211.534286	1097.404785	1143.152344	1106.739136	20.404041
211.916061	1097.490723	1141.238159	1106.846802	21.386578
212.297791	1097.985474	1142.119995	1109.234131	25.487207
212.679489	1097.125122	1143.195435	1108.588989	24.883415
213.061157	1093.662354	1142.313599	1108.180298	29.840849
213.442795	1093.812988	1142.786743	1105.448730	23.759138
213.824402	1094.071167	1142.829712	1101.942993	16.144506
214.205963	1094.823730	1141.496216	1102.072021	15.530116
214.587524	1093.705444	1141.195190	1102.480591	18.477982
214.969025	1094.952881	1142.937378	1103.814087	18.466810
215.350510	1093.554932	1145.948486	1105.319702	22.454615
215.731949	1092.823730	1144.572021	1104.437988	22.443752
216.113358	1092.221558	1147.841309	1103.642090	20.533232
216.494736	1093.361328	1147.239014	1102.566650	17.085594
216.876083	1093.124878	1145.324707	1104.222778	21.260416
217.257401	1094.823975	1146.765747	1102.889404	15.527829
217.638702	1094.910034	1149.389771	1103.943237	16.580849
218.019943	1095.791748	1151.841553	1105.190674	16.768883
218.401169	1094.006592	1152.142700	1105.835938	20.347673
218.782349	1094.372070	1154.788208	1107.276978	21.360033
219.163498	1094.436646	1158.272583	1107.535034	20.518831
219.544632	1098.286621	1158.659668	1106.846802	14.178812
219.925705	1102.416138	1162.423584	1109.513794	11.827959
220.306778	1103.104370	1163.929199	1110.180542	11.633690
220.687805	1101.082520	1168.661011	1113.643433	18.587147
221.068802	1101.770996	1176.640503	1114.589722	17.121424
221.449738	1101.985840	1182.598145	1116.589966	18.116497
221.830673	1099.340454	1186.620117	1119.450562	23.041000
222.211563	1098.394043	1191.932617	1123.773682	27.132805
222.592438	1098.759766	1200.084106	1125.365234	26.257727
222.973267	1099.060913	1206.730225	1124.719849	23.831244
223.354065	1097.727417	1211.655518	1126.655640	25.391649
223.734848	1093.791382	1217.828369	1126.806152	26.616875
224.115555	1090.436157	1228.302734	1128.247192	27.425817
224.496262	1092.694458	1238.497559	1130.527100	25.947762
224.876923	1092.178223	1246.498535	1130.075439	24.557505
225.257568	1091.016846	1255.639526	1132.764038	25.359320
225.638168	1088.113281	1265.554688	1133.817993	25.757637
226.018723	1090.479248	1277.147583	1134.914917	23.804609
226.399277	1092.328735	1291.923462	1136.506470	22.133718
226.779785	1094.759277	1309.861206	1142.141602	22.027847
227.160263	1093.726929	1333.046875	1148.615356	22.935165
227.540695	1093.103149	1363.351685	1156.831543	23.581402
227.921112	1091.984741	1408.217529	1170.403076	24.797661
228.301483	1092.501099	1466.525879	1186.340576	25.089108
228.681824	1092.006348	1543.460083	1207.267822	25.531181
229.062134	1095.339966	1631.212891	1228.990967	24.940802
229.442413	1095.404419	1713.438232	1251.574341	25.268831
229.822647	1099.469604	1782.349976	1270.759521	25.083445
230.202881	1100.846069	1832.011841	1284.739746	25.150751
230.583054	1100.674072	1871.651245	1294.504395	25.140863
230.963196	1098.372681	1904.106934	1301.666626	25.230892
231.343292	1097.576782	1930.819946	1309.925781	25.484638
231.723404	1097.146606	1946.348755	1313.151978	25.436272
232.103439	1098.372681	1940.670654	1310.700073	25.208109
232.483459	1098.630737	1913.054321	1299.494385	24.663290
232.863434	1096.802612	1867.650757	1286.374512	24.592638
233.243393	1091.662109	1814.934814	1270.953247	24.788872
233.623306	1092.909668	1767.294434	1254.908203	24.021677
234.003174	1092.242920	1737.763672	1247.165405	23.999613
234.383041	1089.382324	1724.880371	1241.788208	23.982117
234.762848	1090.930786	1717.675293	1237.207031	23.339054
235.142639	1091.855591	1711.932495	1234.002441	22.924068
235.522385	1094.135498	1708.491089	1230.711670	22.230801
235.902115	1095.834839	1710.212036	1230.410400	21.904387
236.281799	1095.641113	1716.384766	1230.410645	21.710979
236.661438	1096.178833	1729.009888	1234.669067	21.884235
237.041077	1095.576660	1740.946899	1236.798340	21.882273
237.420654	1098.458618	1747.033569	1240.519287	21.903509
237.800217	1097.963989	1755.550659	1243.723999	22.165901
238.179733	1098.351074	1761.530029	1244.197144	21.991962
238.559219	1100.372925	1769.509644	1247.552368	21.995422
238.938690	1098.265137	1782.220703	1250.972168	22.327040
239.318100	1096.630493	1800.158325	1255.037109	22.516041
239.697510	1097.017578	1821.687988	1260.801270	22.601130
240.076859	1097.168091	1847.260986	1265.533081	22.445885
240.456177	1098.178955	1891.976440	1275.706421	22.364326
240.835464	1096.651855	1948.263184	1287.815552	22.447294
241.214722	1097.275757	2024.745728	1305.129395	22.410822
241.593948	1097.963989	2132.092285	1326.981567	22.145954
241.973129	1097.856567	2259.333740	1352.662231	21.938068
242.352295	1097.297363	2406.750000	1381.655151	21.715775
242.731415	1097.856323	2553.327148	1411.443848	21.545435
243.110519	1095.877686	2674.417480	1437.382446	21.634220
243.489578	1095.877686	2769.440186	1455.169678	21.468693
243.868607	1096.049805	2835.943115	1467.515137	21.349892
244.247604	1097.684448	2886.035156	1479.237061	21.335447
244.626541	1098.910278	2917.953125	1487.560669	21.365654
245.005493	1099.792114	2945.719727	1492.636597	21.281685
245.384369	1100.114868	2970.948975	1496.529419	21.189188
245.763229	1100.609497	2998.909180	1502.487183	21.170403
246.142059	1102.760254	3052.937500	1515.069458	21.142139
246.520859	1102.351685	3154.261475	1538.513306	21.256376
246.899612	1100.889038	3308.366943	1567.979248	21.159451
247.278336	1101.942993	3494.518799	1606.091431	21.071369
247.657043	1102.394653	3664.540039	1642.913208	21.096325
248.035690	1101.405273	3803.309570	1671.669556	21.106014
248.414322	1100.867676	3921.002197	1693.177368	21.002888
248.792908	1099.297607	4008.367432	1711.093628	21.030642
249.171478	1099.835205	4061.642822	1721.417603	20.986589
249.550003	1101.104126	4068.827148	1723.052246	20.957081
249.928482	1100.588013	4035.661621	1719.524902	21.087610
250.306961	1099.620117	3942.724854	1699.350342	21.094200
250.685364	1099.362061	3780.747803	1666.120239	21.136765
251.063782	1100.652466	3577.324951	1627.706909	21.280750
251.442123	1101.168701	3379.536865	1588.863403	21.405439
251.820450	1102.416138	3241.261963	1561.268799	21.453285
252.198761	1102.201050	3168.177490	1547.611206	21.559303
252.576996	1101.276245	3111.740479	1537.244141	21.684937
252.955246	1101.921509	3063.153809	1525.436279	21.594320
253.333420	1101.039673	3017.792969	1516.574951	21.679121
253.711578	1100.437500	2990.306152	1509.283691	21.633577
254.089706	1100.308472	2965.872803	1501.519409	21.506144
254.467804	1098.716675	2948.537354	1494.443359	21.392706
254.845871	1099.856567	2933.202148	1490.249268	21.294004
255.223877	1098.996338	2907.005371	1483.065552	21.242661
255.601898	1100.480347	2870.334229	1474.268677	21.119728
255.979828	1098.265137	2818.026367	1461.772339	21.137074
256.357727	1098.630737	2763.826172	1450.308594	21.119314
256.735657	1098.480225	2741.457764	1448.545044	21.306732
257.113525	1098.071411	2758.492432	1450.953979	21.252596
257.491333	1098.480347	2812.197754	1463.213379	21.283150
257.869110	1097.835083	2891.799072	1481.860840	21.406548
258.246887	1097.684448	3007.146729	1505.670288	21.366531
258.624573	1097.232788	3174.092285	1541.373779	21.385221
259.002289	1097.275757	3402.142090	1586.562134	21.228407
259.379944	1098.566284	3704.265625	1650.914185	21.197685
259.757538	1098.415649	4068.052490	1726.063354	21.135504
260.135162	1099.318970	4428.032715	1802.115723	21.113163
260.512665	1100.760010	4715.939453	1858.939941	20.972124
260.890228	1099.792114	4904.715332	1894.363770	20.882725
261.267700	1101.147095	5016.622070	1917.420410	20.847363
261.645142	1101.942871	5083.039063	1928.712158	20.767378
262.022552	1103.211914	5120.677734	1934.433228	20.690189
262.399994	1102.717285	5125.904297	1931.142578	20.591270
262.777313	1103.857178	5080.715820	1920.818481	20.542881
263.154602	1104.911011	4961.216309	1894.729370	20.481220
263.531921	1102.824707	4760.159180	1850.809814	20.451647
263.909149	1102.459106	4480.791504	1789.060425	20.323675
264.286377	1101.491333	4192.583984	1730.106934	20.336355
264.663574	1099.878174	3972.277100	1684.294556	20.345934
265.040710	1101.921509	3845.767090	1655.043701	20.158648
265.417816	1099.168457	3795.782227	1642.289551	20.140856
265.794891	1099.340576	3797.803955	1643.644531	20.170885
266.171936	1099.104004	3841.508057	1652.269165	20.170813
266.548950	1099.921265	3899.708740	1664.700806	20.172228
266.925934	1101.383789	3954.425049	1676.487183	20.157557
267.302887	1100.329834	4020.368896	1688.854370	20.154680
267.679810	1102.308594	4091.776367	1698.167480	19.931938
268.056671	1102.652710	4176.216797	1712.943481	19.856127
268.433502	1101.749512	4266.658203	1725.912598	19.721361
268.810333	1101.684814	4350.517578	1741.871582	19.705132
269.187073	1099.039429	4426.677734	1756.239014	19.749731
269.563843	1101.362305	4488.276855	1768.735229	19.704451
269.940521	1100.588013	4541.895996	1777.897705	19.681751
270.317200	1099.899780	4605.710449	1787.812866	19.622084
270.693848	1099.146973	4713.035645	1806.331299	19.568514
271.070435	1097.705933	4884.304199	1835.216675	19.476868
271.447021	1095.856323	5082.371582	1869.909058	19.416777
271.823547	1093.920532	5251.705078	1901.310913	19.418764
272.200043	1092.931152	5382.043457	1927.873413	19.466551
272.576538	1096.501465	5496.100098	1948.714722	19.370251
272.952972	1096.630493	5606.415527	1967.469482	19.309988
273.329346	1099.641602	5698.835449	1986.353638	19.279728
273.705688	1097.490723	5766.155762	1998.226074	19.293209
274.082062	1094.221558	5809.837891	2002.484741	19.260754
274.458344	1094.049438	5806.568848	2000.914551	19.243742
274.834595	1093.060059	5748.755371	1991.902710	19.306303
275.210846	1093.748413	5652.141113	1974.287598	19.316879
275.587006	1095.361572	5538.041016	1954.026978	19.327646
275.963165	1096.135864	5473.688965	1941.767578	19.317451
276.339294	1095.920898	5444.265625	1935.487061	19.307718
276.715393	1094.329224	5440.265137	1934.411621	19.330297
277.091461	1093.942017	5437.361816	1933.787964	19.336052
277.467438	1092.931152	5444.867676	1935.745361	19.366417
277.843445	1094.372192	5460.289551	1939.057495	19.347258
278.219452	1097.361816	5481.604004	1946.327271	19.364017
278.595337	1097.275757	5513.521484	1953.037598	19.377586
278.971191	1097.318726	5547.805664	1959.963013	19.383144
279.347046	1096.716553	5572.969727	1967.297363	19.448874
279.722870	1095.727051	5607.189453	1973.513306	19.456800
280.098663	1096.953125	5631.234863	1977.599731	19.421965
280.474396	1098.222168	5683.004883	1986.633179	19.377386
280.850098	1099.727539	5749.679688	1997.688232	19.311182
281.225800	1099.770630	5852.595703	2015.905518	19.275585
281.601440	1099.125488	5983.816895	2040.015991	19.262026
281.977051	1098.996338	6153.665527	2069.546631	19.201065
282.352600	1100.265503	6314.695801	2096.775879	19.110628
282.728149	1102.996948	6448.454590	2119.273438	19.011965
283.103668	1104.007935	6547.198242	2133.748291	18.917955
283.479156	1102.588379	6633.079590	2144.265625	18.835167
283.854553	1102.502319	6720.380859	2160.869873	18.839275
284.229950	1098.480347	6819.877930	2179.947510	18.902151
284.605347	1096.501587	6916.750000	2197.670166	18.919615
284.980652	1094.888428	7007.728516	2215.027100	18.944174
285.355988	1092.500977	7095.331055	2228.448242	18.923529
285.731201	1094.243042	7173.210938	2239.073242	18.832642
286.106445	1094.888428	7234.551758	2249.160400	18.800249
286.481659	1094.802368	7309.464355	2261.355469	18.770983
286.856781	1091.490112	7380.248047	2272.173828	18.774513
287.231934	1093.942017	7436.878418	2279.357666	18.688751
287.607025	1097.254272	7468.667480	2287.358643	18.678814
287.982056	1100.114868	7471.699707	2282.734131	18.560833
288.357086	1103.577637	7457.009766	2273.228027	18.409740
288.732086	1104.201294	7427.049805	2263.527588	18.335506
289.107025	1104.373413	7399.476563	2253.999756	18.262232
289.481934	1106.137085	7369.988770	2246.880615	18.211535
289.856842	1104.395020	7367.579590	2243.439209	18.186342
290.231659	1103.276611	7383.409668	2246.665771	18.206450
290.606506	1102.717407	7399.583984	2246.816162	18.169334
290.981262	1104.029419	7420.532715	2252.451172	18.181290
291.355988	1103.341064	7460.408203	2262.559814	18.235119
291.730713	1101.276245	7499.531250	2266.818604	18.216566
292.105377	1100.996582	7523.040527	2276.196045	18.299461
292.480011	1102.115112	7531.126953	2289.552490	18.469982
292.854614	1101.340698	7544.418945	2300.908936	18.617937
293.229187	1102.093628	7573.949707	2315.856934	18.754486
293.603729	1104.115356	7617.632324	2339.967285	18.973650
293.978241	1103.771240	7652.840332	2366.831055	19.286097
294.352692	1101.964478	7681.683105	2390.511230	19.583614
294.727081	1101.061035	7708.525391	2420.020264	19.961655
295.101501	1098.609253	7761.865234	2453.680420	20.336472
295.475830	1095.512085	7848.133301	2492.265869	20.684616
295.850189	1095.038940	7991.893555	2549.412598	21.087492
296.224457	1091.683716	8203.381836	2618.259766	21.465704
296.598694	1089.403809	8463.350586	2695.753174	21.784119
296.972931	1089.016602	8729.597656	2776.817383	22.089952
297.347107	1088.586426	8935.946289	2847.298828	22.411518
297.721283	1087.898071	9061.037109	2893.992920	22.652243
298.095367	1089.769409	9098.051758	2922.791992	22.889086
298.469452	1092.737427	9080.931641	2937.116455	23.088810
298.843475	1092.199707	9037.636719	2942.471680	23.287228
299.217529	1094.587158	8972.337891	2944.128174	23.478033
299.591492	1096.436890	8892.672852	2940.299805	23.650682
299.965424	1098.135864	8774.442383	2924.426758	23.791271
300.339325	1102.179565	8594.958008	2894.272461	23.917603
300.713196	1103.513062	8374.263672	2851.364258	24.039488
301.087036	1105.448730	8138.126465	2804.218750	24.155380
301.460815	1104.975586	7937.585938	2761.589600	24.245697
301.834564	1103.771118	7774.533203	2731.542969	24.401587
302.208282	1103.125854	7649.119141	2704.163086	24.458279
302.582001	1103.297974	7531.814453	2679.170410	24.513781
302.955658	1103.297974	7423.306641	2656.071045	24.569160
303.329254	1100.889038	7332.241699	2630.992432	24.554916
303.702820	1101.276245	7248.747070	2613.936768	24.606226
304.076416	1100.910645	7176.007813	2592.299805	24.549223
304.449921	1099.491089	7122.452637	2577.093506	24.532822
304.823395	1099.749146	7062.165527	2562.575928	24.534126
305.196838	1099.426636	7003.878418	2546.444824	24.507240
305.570251	1097.921021	6932.858887	2530.614990	24.553713
305.943604	1096.479980	6870.485840	2512.074707	24.516684
306.316986	1096.350952	6825.146973	2497.535156	24.458616
306.690277	1094.759399	6800.218750	2490.243896	24.458757
307.063507	1094.200073	6800.971680	2488.308105	24.429014
307.436768	1095.038940	6830.372070	2494.653076	24.403362
307.809937	1092.328979	6880.078125	2504.353271	24.396778
308.183136	1093.081665	6951.484375	2525.323730	24.447655
308.556244	1091.640747	7039.259277	2546.552490	24.462088
308.929321	1092.802002	7145.702637	2568.340088	24.377373
309.302399	1091.963379	7244.488770	2592.601074	24.390598
309.675446	1093.597778	7353.104492	2612.409912	24.264086
310.048401	1095.167969	7449.568359	2638.004150	24.279808
310.421356	1093.662354	7553.624512	2662.200928	24.280926
310.794281	1094.049438	7670.606445	2686.375732	24.212156
311.167145	1096.264771	7784.168945	2708.765869	24.110708
311.539978	1100.437378	7864.242676	2729.155273	24.079906
311.912781	1102.588135	7910.098145	2737.973633	24.023256
312.285553	1101.147095	7899.667480	2734.338867	24.022753
312.658295	1102.308472	7851.940430	2721.541504	23.989946
313.031006	1101.254639	7786.728027	2706.292236	24.007837
313.403656	1101.792358	7728.354980	2691.623779	23.991796
313.776276	1101.663208	7684.435547	2684.224854	24.040958
314.148865	1102.029053	7688.415527	2678.310303	23.932413
314.521454	1105.040161	7694.351563	2679.213867	23.889805
314.893982	1103.147583	7677.596680	2675.406494	23.914686
315.266449	1101.018311	7620.212891	2664.287354	23.979483
315.638885	1095.899292	7539.772949	2643.768555	24.020788
316.011322	1094.544189	7452.429199	2622.325195	24.029705
316.383667	1094.759277	7385.065430	2604.365723	23.998934
316.756042	1094.458130	7327.316895	2589.396240	23.984791
317.128326	1094.049561	7277.848145	2579.975586	24.029339
317.500610	1094.329102	7220.959473	2565.436523	24.011688
317.872833	1094.157104	7145.443848	2550.552734	24.067537
318.245087	1094.608643	7047.453613	2528.163086	24.081839
318.617218	1093.468872	6948.925293	2505.665527	24.117619
318.989319	1094.780762	6877.604980	2489.276367	24.114439
319.361420	1097.684448	6835.212402	2478.995361	24.075020
319.733490	1100.889160	6807.423828	2473.274414	24.049364
320.105530	1099.792114	6786.690430	2467.660645	24.052980
320.477509	1100.566528	6764.343750	2463.187012	24.058512
320.849457	1101.512817	6742.125488	2459.121826	24.068466
321.221375	1099.899780	6731.974609	2454.067383	24.043850
321.593231	1100.200806	6729.565430	2451.013428	23.995827
321.965088	1100.802979	6731.823242	2452.002686	23.995646
322.336884	1102.459106	6746.857422	2454.433105	23.952490
322.708618	1100.265381	6786.432617	2462.928711	23.964533
323.080414	1101.254761	6844.159668	2474.736816	23.916155
323.452118	1102.179565	6947.871582	2498.051514	23.878643
323.823761	1099.899658	7085.007324	2526.592773	23.837385
324.195343	1102.846313	7229.239258	2558.940918	23.767567
324.566925	1101.061035	7372.160645	2590.493164	23.750732
324.938507	1099.189941	7509.081055	2619.679688	23.720991
325.310059	1099.964355	7620.814453	2646.779541	23.721066
325.681519	1099.663208	7736.399902	2672.718506	23.702240
326.052948	1098.802856	7852.091797	2693.064697	23.607191
326.424408	1094.458130	7916.723145	2715.110596	23.755342
326.795776	1097.275757	7936.703613	2718.551758	23.704849
327.167084	1095.705688	7906.787109	2711.712402	23.726139
327.538391	1093.490356	7825.529785	2693.817627	23.771805
327.909668	1095.296997	7721.903320	2669.707275	23.758923
328.280884	1095.813232	7621.073730	2646.349365	23.762056
328.652100	1096.802734	7529.922363	2624.798584	23.752020
329.023254	1097.856445	7453.332520	2609.527588	23.785334
329.394348	1098.200562	7390.443359	2593.525635	23.764580
329.765442	1097.834839	7310.196777	2576.254883	23.798035
330.136475	1098.351074	7226.937988	2555.564209	23.777311
330.507538	1099.878174	7159.510742	2537.282227	23.720976
330.878479	1097.619873	7106.687500	2525.753906	23.766317
331.249420	1098.673706	7078.705078	2523.818115	23.831722
331.620331	1097.168091	7080.082520	2524.205322	23.851873
331.991211	1096.092896	7099.223633	2527.969238	23.852160
332.362030	1094.716309	7135.120605	2538.292969	23.898676
332.732819	1093.877441	7177.190430	2549.262207	23.924213
333.103577	1092.888184	7218.851074	2559.156006	23.935305
333.474304	1093.103271	7245.328125	2571.006836	24.022263
333.845001	1093.103271	7266.728516	2579.007813	24.068590
334.215668	1095.318481	7282.107422	2589.890869	24.157480
334.586273	1096.221802	7310.819824	2595.762451	24.129326
334.956818	1097.490845	7336.048340	2604.343994	24.153872
335.327362	1096.437012	7358.523926	2609.807129	24.167185
335.697876	1099.534058	7373.127930	2616.904785	24.186626
336.068329	1099.964355	7380.677734	2623.744385	24.261257
336.438751	1099.964233	7374.892578	2623.314453	24.276775
336.809174	1103.233521	7369.923828	2626.906006	24.313831
337.179504	1103.018433	7381.000000	2630.713135	24.334171
337.549896	1103.469971	7413.283203	2635.057617	24.273106
337.920135	1105.814331	7465.849609	2645.811768	24.213663
338.290375	1104.115234	7520.394043	2659.469482	24.240753
338.660614	1103.835815	7566.679688	2670.954834	24.248135
339.030792	1104.975708	7605.523438	2683.816650	24.287813
339.400940	1107.556641	7646.431152	2694.377197	24.267488
339.771027	1106.309204	7679.596680	2705.647217	24.330870
340.141083	1106.825317	7714.590820	2714.185791	24.325325
340.511139	1107.965210	7751.798828	2729.499756	24.406610
340.881134	1105.642456	7796.600098	2742.146240	24.458439
341.251068	1105.599243	7825.829590	2749.351563	24.459761
341.621002	1104.373291	7840.841797	2756.513672	24.525318
341.990875	1101.233154	7849.101563	2763.783447	24.638157
342.360718	1099.964233	7858.995117	2766.407227	24.655058
342.730560	1100.136230	7879.062012	2775.935303	24.720716
343.100311	1097.834961	7921.325195	2786.409912	24.746500
343.470032	1097.383301	7984.279297	2805.702881	24.805363
343.839752	1097.125122	8068.074707	2826.608398	24.809866
344.209442	1098.028564	8161.526855	2853.902100	24.858414
344.579041	1096.523071	8264.938477	2875.517822	24.817127
344.948639	1095.813232	8365.853516	2904.703857	24.881439
345.318176	1098.845825	8455.262695	2930.513672	24.898912
345.687714	1098.286621	8552.909180	2954.774902	24.903854
346.057190	1098.200562	8625.068359	2976.970947	24.960854
346.426636	1100.136230	8678.581055	2995.059326	25.004116
346.796051	1099.297363	8703.013672	3003.899170	25.048302
347.165405	1099.985596	8698.797852	3004.006836	25.056826
347.534729	1099.598633	8657.610352	2994.392334	25.070002
347.904083	1099.770752	8593.752930	2982.218994	25.119465
348.273315	1099.211426	8511.786133	2964.646973	25.165825
348.642517	1099.491089	8436.227539	2949.247070	25.212246
349.011719	1099.749146	8361.422852	2929.739502	25.200668
349.380890	1096.781006	8308.834961	2918.146729	25.254467
349.749969	1097.942505	8260.614258	2910.597412	25.306965
350.119049	1101.147217	8238.375977	2905.994629	25.287790
350.488098	1102.308716	8235.384766	2908.209961	25.317286
350.857117	1103.534668	8238.632813	2914.253662	25.377632
351.226074	1102.179565	8268.012695	2925.437744	25.443771
351.595001	1102.910889	8313.008789	2939.504150	25.472515
351.963867	1102.910889	8365.336914	2955.376953	25.507538
352.332764	1099.813721	8432.206055	2975.702148	25.583578
352.701538	1099.146973	8501.246094	2998.586670	25.660826
353.070343	1100.738525	8591.322266	3026.482666	25.708866
353.439056	1100.867676	8685.075195	3057.432617	25.797882
353.807770	1101.233276	8792.744141	3088.683838	25.839535
354.176453	1100.243896	8898.822266	3118.450928	25.879168
354.545105	1096.781128	9022.581055	3152.197021	25.933231
354.913666	1096.931641	9173.868164	3193.642822	25.959238
355.282227	1098.652344	9334.511719	3239.928223	25.999422
355.650757	1095.770264	9501.285156	3288.687256	26.089027
356.019226	1095.899292	9686.339844	3336.886719	26.086990
356.387695	1097.275757	9897.461914	3392.140869	26.077461
356.756104	1097.727417	10147.257813	3461.633545	26.121866
357.124451	1096.458496	10424.130859	3543.449463	26.233673
357.492828	1095.856201	10681.905273	3620.728027	26.339025
357.861084	1096.716553	10896.963867	3685.596191	26.416473
358.229401	1096.436890	11065.134766	3739.130371	26.509914
358.597595	1100.028687	11179.878906	3776.747803	26.555147
358.965759	1098.308105	11285.785156	3808.299805	26.601206
359.333923	1097.576904	11397.927734	3843.443848	26.657995
359.702057	1099.770630	11556.829102	3887.643066	26.660198
360.070129	1098.329590	11736.874023	3944.058594	26.749231
360.438141	1100.695435	11947.889648	4007.894287	26.801390
360.806122	1102.717163	12195.875977	4080.613037	26.844437
361.174133	1104.502441	12475.975586	4159.009766	26.861141
361.542053	1106.201660	12787.734375	4245.063965	26.870295
361.909912	1104.782104	13059.295898	4328.923828	26.970078
362.277771	1104.072266	13289.452148	4395.555176	27.011738
362.645599	1102.523560	13435.535156	4439.776367	27.059513
363.013367	1101.684937	13487.328125	4464.746582	27.152901
363.381134	1101.878540	13454.527344	4461.219238	27.195309
363.748810	1100.824707	13341.522461	4435.990723	27.246536
364.116455	1101.792480	13151.778320	4389.447266	27.283474
364.484100	1100.136353	12877.100586	4317.416504	27.318419
364.851715	1097.426270	12500.042969	4218.694824	27.373264
365.219238	1095.641113	12017.209961	4090.269775	27.419401
365.586761	1094.071167	11496.714844	3949.715088	27.451138
365.954224	1092.587036	11045.755859	3820.258545	27.405054
366.321686	1092.113770	10687.518555	3720.396729	27.391060
366.689117	1093.275269	10452.758789	3659.958496	27.423342
367.056458	1096.824097	10290.286133	3611.049072	27.347969
367.423737	1097.533936	10172.636719	3575.045166	27.300091
367.791077	1098.630859	10063.891602	3548.354004	27.324617
368.158295	1099.362061	9978.162109	3525.963867	27.330292
368.525543	1099.899658	9899.936523	3511.553223	27.405039
368.892700	1102.222534	9826.788086	3495.142334	27.427382
369.259827	1103.233521	9775.147461	3480.215820	27.410124
369.626953	1104.567017	9742.949219	3472.601807	27.412943
369.994019	1105.083130	9712.256836	3471.161133	27.489605
370.361053	1105.814453	9696.125977	3471.118164	27.534552
370.728027	1104.201294	9690.146484	3467.762695	27.528261
371.094971	1102.545166	9704.665039	3474.430420	27.573263
371.461914	1099.792114	9732.152344	3488.646973	27.673254
371.828796	1099.964355	9764.951172	3504.606201	27.751247
372.195618	1099.383545	9808.225586	3516.715088	27.757210
372.562408	1099.598633	9839.046875	3528.867188	27.796589
372.929199	1098.867310	9875.116211	3546.288818	27.886873
373.295898	1096.544434	9908.454102	3557.666504	27.929495
373.662598	1097.576782	9953.125977	3577.131348	28.000011
374.029236	1098.093018	9996.227539	3593.928955	28.048979
374.395844	1098.802856	10033.027344	3610.748535	28.115992
374.762421	1100.566528	10077.097656	3631.052246	28.190020
375.128967	1099.555542	10134.545898	3652.452881	28.255674
375.495483	1103.448608	10215.415039	3678.928955	28.264814
375.861908	1101.125854	10344.572266	3719.235107	28.323954
376.228333	1100.609497	10513.862305	3776.769287	28.429701
376.594727	1098.265137	10751.439453	3850.154541	28.507612
376.961090	1097.770386	11016.181641	3925.281982	28.507708
377.327393	1101.211792	11269.352539	4004.023193	28.548105
377.693665	1099.620117	11461.527344	4067.106201	28.638416
378.059906	1100.243896	11601.781250	4118.273926	28.738935
378.426086	1101.190186	11685.490234	4145.546387	28.762943
378.792267	1100.781494	11717.967773	4162.322266	28.835707
379.158386	1100.200806	11706.439453	4167.161621	28.916576
379.524445	1098.006958	11674.457031	4165.376465	29.001883
379.890503	1099.964233	11605.610352	4150.557617	29.037653
380.256531	1100.996582	11494.047852	4123.801270	29.084864
380.622467	1102.953857	11331.468750	4081.581055	29.120819
380.988403	1103.255005	11130.669922	4030.542725	29.192844
381.354279	1101.104126	10936.257813	3982.041992	29.292253
381.720154	1099.426636	10784.260742	3943.714600	29.368475
382.085968	1100.738525	10692.442383	3915.797119	29.348888
382.451752	1099.491089	10663.148438	3917.517334	29.465990
382.817474	1100.028809	10677.924805	3931.476563	29.562313
383.183197	1101.512939	10747.503906	3957.738037	29.610489
383.548859	1101.211792	10817.749023	3991.548340	29.746569
383.914490	1099.491211	10895.329102	4024.090088	29.855526
384.280060	1099.276123	10966.520508	4057.513916	29.980385
384.645599	1098.802856	11036.163086	4091.539063	30.116009
385.011108	1096.781128	11120.754883	4135.759766	30.317104
385.376617	1095.426147	11219.089844	4179.528320	30.464287
385.742035	1095.684082	11332.500977	4225.318848	30.572344
386.107452	1093.361328	11437.826172	4274.314453	30.750292
386.472778	1093.210815	11530.417969	4317.976074	30.896820
386.838135	1090.823364	11626.559570	4362.948730	31.057398
387.203430	1090.328735	11692.825195	4406.675293	31.278923
387.568634	1089.446777	11741.561523	4437.323730	31.429222
387.933838	1091.296509	11771.308594	4466.768555	31.605511
388.299042	1091.855713	11806.624023	4495.008789	31.761332
388.664124	1089.403809	11833.939453	4517.183594	31.902542
389.029236	1092.931152	11843.661133	4530.927246	31.979185
389.394318	1094.114136	11856.931641	4553.897949	32.145706
389.759308	1094.157104	11859.254883	4574.480957	32.329700
390.124298	1094.415161	11897.474609	4609.818848	32.540817
390.489227	1096.178833	11985.441406	4654.576660	32.678043
390.854126	1096.350830	12100.639648	4711.035645	32.847961
391.218964	1097.748901	12246.528320	4778.570801	33.015469
391.583771	1097.641479	12404.568359	4852.945801	33.212421
391.948578	1094.372192	12542.930664	4921.448242	33.428455
392.313354	1092.436401	12655.502930	4978.896484	33.610981
392.678040	1094.522705	12759.365234	5033.763184	33.770199
393.042694	1091.554565	12871.121094	5096.373047	33.998013
393.407349	1093.705322	12997.244141	5160.639160	34.165752
393.771942	1094.630371	13137.218750	5229.185547	34.332779
394.136505	1093.985107	13233.640625	5281.751465	34.496586
394.501007	1091.145996	13250.416016	5313.476074	34.725197
394.865479	1092.113770	13191.269531	5314.981445	34.902168
395.229919	1090.715820	13059.208984	5286.439941	35.056412
395.594360	1094.264771	12900.953125	5254.629395	35.237354
395.958710	1098.007080	12755.558594	5223.270020	35.387043
396.323029	1098.953491	12622.725586	5202.170898	35.606544
396.687286	1099.254517	12495.181641	5179.651855	35.805752
397.051544	1100.932129	12373.447266	5153.369141	35.949715
397.415771	1098.888794	12218.524414	5119.881836	36.161194
397.779938	1099.426636	12045.384766	5079.425293	36.360439
398.144043	1100.803101	11876.718750	5038.732422	36.543800
398.508148	1099.383545	11731.345703	5008.448730	36.767109
398.872192	1099.039429	11617.761719	4990.145020	36.992188
399.236237	1099.297485	11542.204102	4985.025879	37.209263
399.600189	1097.060669	11490.456055	4981.670898	37.375759
399.964111	1095.920776	11451.311523	4984.445313	37.550728
400.328003	1094.866943	11420.555664	4989.585938	37.718735
400.691925	1093.081787	11410.338867	5007.631348	37.941769
401.055695	1093.554932	11395.217773	5023.331543	38.147011
401.419495	1093.404297	11390.186523	5042.043945	38.348286
401.783234	1092.522583	11416.532227	5066.627930	38.493816
402.146942	1093.490356	11432.211914	5088.608887	38.642288
402.510620	1096.071167	11475.981445	5121.903320	38.784843
402.874237	1096.910034	11545.322266	5162.102051	38.907269
403.237823	1097.942505	11646.604492	5225.443359	39.128193
403.601379	1097.899536	11783.717773	5299.430664	39.318760
403.964874	1097.598389	11953.416016	5385.806641	39.501476
404.328369	1098.845825	12137.160156	5473.903809	39.635201
404.691772	1101.899902	12298.964844	5561.355957	39.827011
405.055176	1100.394409	12461.372070	5644.269531	39.995457
405.418549	1100.760010	12608.122070	5720.257324	40.143841
405.781860	1100.953613	12710.436523	5783.448242	40.333363
406.145142	1100.372925	12804.383789	5839.067871	40.487785
406.508362	1096.910034	12858.259766	5882.793457	40.691616
406.871552	1096.071289	12872.971680	5910.689453	40.881878
407.234741	1095.533569	12855.744141	5917.399902	41.001530
407.597870	1096.286377	12795.436523	5913.033691	41.171768
407.960938	1099.082397	12714.909180	5898.365234	41.316753
408.323975	1098.759766	12628.490234	5882.169922	41.487614
408.686981	1099.318970	12567.297852	5871.415527	41.612362
409.049957	1099.405029	12529.293945	5873.308594	41.766842
409.412903	1100.050293	12531.552734	5892.257324	41.921062
409.775787	1099.942749	12562.309570	5923.164063	42.078754
410.138611	1100.652466	12608.766602	5961.985840	42.242661
410.501434	1103.900269	12662.795898	5997.560547	42.336746
410.864227	1104.609985	12703.165039	6031.866699	42.481644
411.226929	1104.502441	12739.277344	6063.848145	42.625195
411.589630	1104.696045	12787.863281	6095.809570	42.720551
411.952271	1103.835815	12802.446289	6115.897949	42.843227
412.314911	1103.083008	12808.704102	6134.630859	42.984032
412.677490	1101.577393	12819.889648	6150.009766	43.081566
413.040009	1104.545532	12832.342773	6157.343750	43.083950
413.402496	1102.523682	12817.157227	6155.923828	43.137501
413.764984	1102.652832	12790.637695	6155.515625	43.231258
414.127380	1100.953613	12777.344727	6158.053223	43.310471
414.489777	1100.329956	12783.412109	6170.398926	43.396671
414.852112	1101.104248	12831.394531	6188.465820	43.369442
415.214386	1100.932129	12908.696289	6224.190918	43.388901
415.576660	1100.222290	13008.063477	6272.777832	43.438232
415.938904	1098.695190	13161.844727	6339.687988	43.446304
416.301086	1101.211792	13343.672852	6418.666016	43.434521
416.663208	1101.512817	13534.774414	6505.687500	43.465462
417.025299	1097.964111	13747.102539	6604.452637	43.532516
417.387390	1097.641479	13993.647461	6711.132324	43.528908
417.749420	1097.383301	14281.855469	6836.545410	43.529705
418.111389	1097.576904	14608.261719	6978.692383	43.529366
418.473328	1096.738037	14982.374023	7139.379395	43.517212
418.835266	1094.673340	15378.788086	7322.197266	43.597546
419.197144	1096.781128	15816.389648	7518.738770	43.628590
419.558960	1096.092896	16293.288086	7731.625000	43.662872
419.920746	1095.684204	16814.921875	7979.505859	43.792339
420.282471	1095.899292	17418.888672	8250.291016	43.830154
420.644226	1094.608887	18049.289063	8537.531250	43.898926
421.005920	1092.393433	18652.761719	8821.868164	44.016582
421.367523	1092.909668	19205.388672	9085.406250	44.127018
421.729126	1092.436401	19689.105469	9321.026367	44.247654
422.090668	1091.640503	20103.029297	9532.256836	44.397682
422.452179	1092.414917	20437.283203	9714.579102	44.570805
422.813660	1092.156860	20766.935547	9886.170898	44.696884
423.175110	1089.382324	21078.695313	10055.483398	44.854477
423.536469	1089.016724	21354.472656	10207.910156	44.997231
423.897858	1088.328369	21574.929688	10334.420898	45.132389
424.259155	1086.242065	21651.544922	10410.472656	45.339622
424.620453	1086.134644	21666.791016	10450.455078	45.500591
424.981689	1091.188965	21630.486328	10466.651367	45.646465
425.342865	1092.092285	21562.048828	10473.899414	45.832077
425.704041	1091.769653	21472.617188	10459.081055	45.961346
426.065186	1093.769775	21369.960938	10431.765625	46.053993
426.426239	1094.565674	21230.953125	10389.007813	46.157448
426.787262	1096.522949	20996.988281	10309.964844	46.297619
427.148254	1096.888672	20678.130859	10182.100586	46.397526
427.509216	1098.028442	20293.246094	10027.651367	46.520042
427.870178	1098.222046	19842.652344	9832.079102	46.594414
428.231049	1097.942383	19410.876953	9640.356445	46.646889
428.591858	1100.179321	18984.113281	9451.860352	46.699348
428.952698	1098.910278	18575.439453	9268.094727	46.743748
429.313446	1099.189941	18204.597656	9094.825195	46.743317
429.674164	1101.985962	17855.242188	8936.590820	46.764671
430.034851	1101.147217	17533.355469	8787.131836	46.773895
430.395477	1100.244019	17253.707031	8654.233398	46.763901
430.756104	1099.297607	17029.400391	8546.241211	46.747616
431.116699	1097.297241	16851.013672	8459.284180	46.731747
431.477203	1095.727295	16712.544922	8393.750000	46.731815
431.837646	1097.318848	16644.773438	8363.186523	46.733486
432.198090	1098.243652	16616.832031	8357.616211	46.778564
432.558502	1095.619629	16627.585938	8373.381836	46.856670
432.918884	1095.641113	16653.998047	8399.191406	46.942940
433.279205	1094.049561	16710.177734	8440.099609	47.041428
433.639465	1093.533325	16786.314453	8496.922852	47.177040
433.999756	1095.060425	16865.056641	8566.501953	47.377571
434.359924	1097.211182	16953.216797	8627.499023	47.491707
434.720093	1097.899536	17034.044922	8688.152344	47.629166
435.080200	1099.641602	17095.513672	8751.493164	47.836414
435.440277	1101.211670	17160.146484	8807.522461	47.987682
435.800354	1099.275879	17185.830078	8853.849609	48.205311
436.160370	1097.340210	17192.820313	8882.154297	48.366459
436.520325	1099.189819	17192.820313	8911.362305	48.542011
436.880249	1098.265137	17205.078125	8943.194336	48.705658
437.240112	1098.050171	17215.617188	8979.500000	48.899746
437.599976	1098.265137	17262.482422	9026.795898	49.049892
437.959808	1097.662964	17333.457031	9085.663086	49.199936
438.319519	1096.350952	17413.857422	9168.641602	49.470123
438.679260	1091.145996	17536.646484	9264.029297	49.696777
439.038940	1092.586914	17707.978516	9379.871094	49.877155
439.398590	1092.414795	17931.275391	9520.275391	50.050060
439.758179	1092.866577	18226.859375	9691.759766	50.186165
440.117767	1095.124878	18574.494141	9899.915039	50.372471
440.477295	1095.490601	18934.453125	10112.909180	50.549007
440.836792	1095.920776	19279.357422	10326.957031	50.766178
441.196198	1098.867310	19575.050781	10509.388672	50.933254
441.555603	1098.544800	19804.392578	10656.546875	51.096333
441.914978	1098.265137	19959.164063	10765.506836	51.255470
442.274323	1098.738403	20082.167969	10844.076172	51.336021
442.633575	1103.728149	20140.388672	10902.597656	51.473679
442.992859	1103.685181	20138.429688	10929.441406	51.620110
443.352051	1103.384033	20087.412109	10926.988281	51.746685
443.711182	1105.491943	19969.117188	10894.855469	51.895451
444.070313	1103.921753	19825.337891	10845.171875	52.032658
444.429382	1103.771240	19678.630859	10786.024414	52.125580
444.788452	1103.448608	19573.458984	10749.783203	52.227016
445.147430	1101.641968	19542.746094	10752.193359	52.331749
445.506409	1097.963989	19594.320313	10799.639648	52.451824
445.865295	1094.264771	19736.939453	10885.887695	52.522633
446.224182	1092.888184	19956.279297	11021.946289	52.636658
446.583038	1093.899048	20226.097656	11176.545898	52.699883
446.941833	1092.630005	20505.294922	11339.750000	52.785748
447.300598	1093.597778	20762.875000	11495.231445	52.882645
447.659302	1091.877197	20991.054688	11633.872070	52.977039
448.018005	1093.791504	21158.558594	11738.722656	53.052853
448.376648	1093.597900	21260.806641	11810.344727	53.139465
448.735229	1096.652100	21288.230469	11833.380859	53.174290
449.093781	1098.157715	21246.203125	11820.110352	53.215847
449.452301	1100.308350	21122.595703	11765.500977	53.266605
449.810791	1103.577759	20923.970703	11674.887695	53.335522
450.169220	1103.900269	20623.998047	11523.105469	53.376808
450.527618	1102.373169	20295.289063	11359.364258	53.441547
450.885956	1103.706665	20003.423828	11203.861328	53.440769
451.244263	1103.771118	19716.507813	11063.499023	53.510281
451.602539	1104.781982	19494.673828	10947.785156	53.523983
451.960785	1104.480835	19310.414063	10852.312500	53.542061
452.318970	1108.094238	19172.310547	10779.937500	53.541451
452.677124	1104.609863	19023.412109	10707.735352	53.592449
453.035248	1104.222778	18869.242188	10634.887695	53.648491
453.393311	1105.599243	18696.167969	10548.124023	53.679474
453.751312	1104.695923	18529.070313	10465.166992	53.720554
454.109314	1107.212402	18388.814453	10395.244141	53.745201
454.467285	1109.169800	18245.613281	10325.452148	53.781769
454.825195	1108.739502	18072.367188	10241.376953	53.836586
455.183044	1109.943848	17904.023438	10149.085938	53.823387
455.540894	1106.545654	17691.955078	10035.653320	53.837120
455.898651	1106.674683	17504.232422	9940.328125	53.871761
456.256378	1101.856934	17306.982422	9841.456055	53.931084
456.614105	1103.061401	17179.052734	9774.243164	53.938705
456.971771	1104.050781	17093.775391	9727.163086	53.929085
457.329407	1101.749512	17093.128906	9732.948242	53.974079
457.686981	1101.684814	17167.417969	9769.769531	53.953869
458.044525	1099.598633	17346.685547	9868.986328	53.975140
458.402008	1099.189941	17633.281250	10020.811523	53.958942
458.759460	1098.458618	18066.625000	10261.851563	54.003437
459.116913	1096.329468	18630.761719	10572.878906	54.045376
459.474274	1098.286621	19308.283203	10938.730469	54.038689
459.831635	1098.630859	19928.597656	11273.009766	54.032909
460.188904	1098.738403	20480.904297	11573.584961	54.043736
460.546173	1098.587769	20918.871094	11813.657227	54.061131
460.903381	1097.684448	21253.000000	12002.089844	54.101879
461.260559	1098.093262	21482.876953	12122.684570	54.082458
461.617706	1101.082764	21610.376953	12196.371094	54.098827
461.974762	1100.803101	21586.716797	12183.746094	54.100311
462.331848	1099.017822	21431.537109	12100.616211	54.108387
462.688843	1099.856812	21097.753906	11923.174805	54.122284
463.045837	1099.856812	20608.511719	11659.078125	54.125832
463.402740	1100.028931	20001.488281	11343.339844	54.193226
463.759613	1098.759888	19425.611328	11035.604492	54.220142
464.116486	1099.017944	18915.269531	10761.010742	54.231346
464.473267	1100.222290	18506.187500	10546.748047	54.271770
464.830048	1099.899658	18187.908203	10368.855469	54.242462
465.186737	1101.491333	17932.179688	10234.107422	54.261696
465.543457	1098.910522	17749.082031	10139.836914	54.299301
465.900085	1096.135864	17683.847656	10107.359375	54.324696
466.256683	1093.877563	17708.130859	10120.458008	54.330338
466.613251	1093.081665	17779.880859	10155.602539	54.309521
466.969757	1092.156738	17868.923828	10213.566406	54.369293
467.326233	1092.974121	17954.439453	10256.131836	54.343784
467.682678	1093.468750	18007.349609	10287.748047	54.359371
468.039093	1094.329102	18032.878906	10308.094727	54.395241
468.395416	1091.554688	18023.759766	10294.694336	54.352871
468.751740	1089.511353	18002.896484	10299.233398	54.452267
469.108032	1089.511353	17967.236328	10285.596680	54.486523
469.464233	1089.877075	17925.876953	10266.067383	54.503387
469.820435	1095.770264	17833.671875	10221.051758	54.518665
470.176575	1097.533936	17685.136719	10143.278320	54.533157
470.532715	1099.340576	17518.494141	10053.417969	54.534340
470.888763	1103.470093	17376.755859	9972.224609	54.498856
471.244751	1103.190430	17260.076172	9913.270508	54.528332
471.600769	1103.534668	17199.617188	9881.826172	54.536819
471.956696	1104.029297	17199.033203	9882.622070	54.542347
472.312592	1104.717651	17266.589844	9927.724609	54.591492
472.668457	1105.964966	17356.882813	9982.097656	54.619270
473.024292	1107.126465	17486.939453	10059.397461	54.654297
473.380035	1106.954468	17572.779297	10109.575195	54.674583
473.735779	1106.007935	17660.789063	10164.334961	54.717285
474.091492	1104.953979	17747.638672	10225.675781	54.803185
474.447113	1102.179565	17866.193359	10309.514648	54.923214
474.802765	1098.394165	17964.505859	10379.500977	55.028133
475.158295	1098.587769	18087.423828	10454.305664	55.069798
475.513824	1099.491089	18213.548828	10538.036133	55.150829
475.869324	1098.114624	18362.341797	10623.724609	55.175426
476.224762	1098.781372	18489.732422	10710.939453	55.271030
476.580170	1100.007202	18638.607422	10801.250977	55.313675
476.935516	1099.082397	18791.574219	10898.576172	55.387867
477.290863	1099.469604	19031.796875	11048.723633	55.482220
477.646118	1096.867065	19283.615234	11200.785156	55.556484
478.001373	1097.533936	19573.435547	11372.205078	55.611198
478.356537	1098.609253	19855.857422	11534.613281	55.637180
478.711700	1100.501953	20156.970703	11713.366211	55.691662
479.066833	1099.254395	20462.707031	11894.936523	55.752872
479.421875	1097.555298	20789.414063	12082.702148	55.785217
479.776917	1098.544678	21111.562500	12284.167969	55.891735
480.131897	1098.222046	21482.617188	12503.096680	55.949051
480.486847	1097.146606	21913.056641	12756.333984	56.010944
480.841766	1098.781372	22435.853516	13066.436523	56.088554
481.196594	1098.953491	23050.208984	13417.683594	56.118568
481.551453	1098.093262	23857.900391	13891.269531	56.209511
481.906219	1095.211060	24897.945313	14494.420898	56.292732
482.260986	1094.479736	26347.199219	15335.040039	56.392189
482.615662	1092.135254	28416.939453	16552.417969	56.579666
482.970306	1093.640991	31148.205078	18271.294922	57.154892
483.324951	1093.619385	34243.640625	20371.619141	58.153812
483.679504	1092.673096	37399.925781	22568.644531	59.150635
484.034027	1092.113892	40339.859375	24577.000000	59.837543
484.388519	1091.597656	42912.027344	26242.435547	60.140076
484.742981	1089.898560	45000.953125	27546.466797	60.250359
485.097351	1088.586426	46633.558594	28570.720703	60.340656
485.451721	1092.759033	47805.765625	29310.685547	60.406998
485.806030	1096.501465	48616.898438	29844.324219	60.495750
486.160309	1096.114258	49095.046875	30196.689453	60.627544
486.514557	1098.135986	49099.496094	30282.873047	60.799812
486.868744	1098.265137	48648.539063	30023.720703	60.831310
487.222931	1097.856567	47882.898438	29421.193359	60.539295
487.577026	1099.168579	46976.785156	28683.148438	60.125137
487.931122	1100.071777	46097.984375	28016.117188	59.816204
488.285126	1101.964478	45262.703125	27481.642578	59.735592
488.639099	1103.642090	44510.371094	27066.687500	59.813408
488.993042	1103.706543	43848.421875	26728.324219	59.948036
489.346954	1101.727905	43273.769531	26443.082031	60.090408
489.700836	1102.609741	42718.285156	26181.201172	60.262367
490.054626	1103.233521	42111.195313	25874.669922	60.406406
490.408417	1100.889160	41562.910156	25590.892578	60.525906
490.762146	1102.093628	41075.882813	25337.525391	60.628307
491.115814	1103.491577	40714.914063	25171.851563	60.761158
491.469513	1103.599121	40368.914063	25008.945313	60.881580
491.823090	1102.007324	39915.222656	24779.886719	61.004684
492.176666	1101.813965	39426.257813	24538.695313	61.153870
492.530182	1100.609375	38929.359375	24298.687500	61.323936
492.883698	1099.813721	38390.558594	24027.406250	61.483330
493.237091	1099.017944	37800.746094	23721.929688	61.639912
493.590515	1099.232910	37121.738281	23341.601563	61.745762
493.943878	1098.243652	36263.609375	22879.480469	61.939453
494.297150	1101.233276	35105.378906	22220.882813	62.109047
494.650452	1100.630981	33647.519531	21352.646484	62.224121
495.003662	1100.093262	31910.638672	20313.548828	62.359997
495.356873	1099.792114	30217.744141	19294.736328	62.487030
495.710022	1100.028687	28792.429688	18450.027344	62.652561
496.063110	1098.329590	27677.992188	17814.701172	62.891586
496.416168	1098.867188	26896.216797	17371.464844	63.078564
496.769165	1100.544922	26366.167969	17085.515625	63.267670
497.122162	1100.286865	26053.806641	16923.945313	63.412529
497.475098	1100.566528	25846.599609	16837.675781	63.594471
497.828003	1100.803223	25765.664063	16813.931641	63.706535
498.180847	1099.190063	25726.951172	16827.740234	63.865120
498.533661	1096.479980	25654.445313	16830.814453	64.070190
498.886444	1097.598267	25577.039063	16808.857422	64.181442
499.239136	1096.221802	25444.720703	16759.216797	64.328384
499.591827	1097.727417	25234.654297	16647.138672	64.421669
499.944427	1098.222168	24928.873047	16466.169922	64.488159
500.297089	1096.243286	24563.923828	16260.078125	64.615822
500.649628	1095.899292	24183.425781	16038.912109	64.723312
501.002136	1097.017700	23780.343750	15812.431641	64.873260
501.354584	1097.232788	23425.330078	15615.527344	65.022537
501.707001	1100.394409	23066.189453	15408.534180	65.138275
502.059387	1102.523804	22777.572266	15231.715820	65.186440
502.411682	1104.524048	22528.509766	15079.440430	65.230232
502.764038	1104.265747	22331.023438	14977.834961	65.358871
503.116302	1104.480957	22180.294922	14888.146484	65.400398
503.468475	1104.803589	22081.445313	14839.387695	65.475609
503.820709	1104.954102	22042.277344	14823.579102	65.522339
504.172852	1105.943481	22012.984375	14809.168945	65.543594
504.524902	1106.136963	22011.242188	14801.768555	65.513336
504.876953	1104.588379	22025.222656	14821.665039	65.567207
505.228912	1102.631226	22043.330078	14833.086914	65.568275
505.580872	1100.222290	22069.484375	14841.625000	65.531166
505.932770	1096.953125	22046.945313	14824.139648	65.523590
506.284698	1098.996460	22020.857422	14812.396484	65.545792
506.636505	1100.695557	22023.373047	14801.727539	65.484123
506.988342	1100.179443	22017.480469	14797.834961	65.484810
507.340088	1100.136353	22023.845703	14797.640625	65.464035
507.691772	1100.674072	22037.267578	14794.046875	65.404015
508.043396	1099.684692	22092.435547	14817.750000	65.346680
508.395050	1100.308472	22172.833984	14860.850586	65.300865
508.746582	1101.555786	22285.621094	14916.363281	65.213203
509.098114	1101.039551	22428.003906	14994.545898	65.145256
509.449646	1099.405151	22588.648438	15084.494141	65.079483
509.801086	1100.200806	22787.533203	15194.506836	64.988655
510.152557	1097.447754	22997.281250	15298.369141	64.844887
510.503906	1094.909790	23199.820313	15399.219727	64.711006
510.855194	1096.114136	23391.392578	15491.424805	64.566628
511.206482	1096.028076	23587.716797	15591.309570	64.447273
511.557709	1094.587158	23787.632813	15699.171875	64.357094
511.908844	1096.458496	23983.898438	15789.527344	64.197083
512.260010	1095.275513	24123.050781	15861.040039	64.121544
512.611206	1094.415161	24226.591797	15891.603516	63.967991
512.962219	1096.178711	24295.806641	15903.712891	63.826599
513.313232	1099.512573	24345.337891	15899.863281	63.668850
513.664246	1099.899780	24347.125000	15873.278320	63.549000
514.015137	1101.663330	24320.863281	15834.156250	63.449619
514.366028	1103.362549	24279.220703	15793.828125	63.386936
514.716919	1103.319458	24214.181641	15726.550781	63.274281
515.067688	1103.706665	24113.310547	15631.700195	63.138824
515.418396	1106.158569	24022.310547	15541.065430	62.990101
515.769104	1105.857422	23951.248047	15467.422852	62.864170
516.119812	1105.857544	23936.923828	15417.416016	62.684582
516.470459	1104.136719	24019.449219	15431.202148	62.521797
516.821106	1103.943237	24165.898438	15493.446289	62.394981
517.171631	1102.631348	24438.595703	15625.484375	62.233784
517.522095	1104.072266	24824.949219	15820.821289	62.041336
517.872559	1101.104126	25355.875000	16107.416016	61.869522
518.222961	1099.491089	25922.587891	16397.298828	61.627312
518.573364	1099.878296	26497.068359	16697.144531	61.413357
518.923645	1097.447876	27009.025391	16957.822266	61.209602
519.273987	1095.813232	27444.949219	17163.998047	60.981827
519.624207	1095.017334	27744.255859	17298.767578	60.803802
519.974487	1094.845215	27967.314453	17395.853516	60.660625
520.324646	1097.146606	28054.812500	17406.716797	60.500675
520.674744	1099.426392	28052.123047	17353.525391	60.306019
521.024780	1100.351196	27905.179688	17221.681641	60.143383
521.374878	1100.415771	27644.673828	17014.625000	59.953491
521.724792	1102.588013	27274.068359	16729.599609	59.710079
522.074707	1100.544800	26863.738281	16446.490234	59.565384
522.424744	1100.136230	26471.169922	16163.485352	59.372234
522.774536	1100.265381	26182.986328	15948.922852	59.198750
523.124329	1099.082520	25963.087891	15772.622070	59.015186
523.474182	1100.846191	25892.238281	15684.180664	58.824181
523.823914	1101.426880	25940.138672	15655.187500	58.593060
524.173523	1102.029175	26151.929688	15726.162109	58.380005
524.523132	1100.588013	26546.710938	15890.397461	58.122055
524.872803	1100.007324	27100.238281	16142.579102	57.855534
525.222290	1098.544678	27838.675781	16513.292969	57.646496
525.571777	1098.695190	28641.482422	16921.966797	57.449783
525.921326	1100.544800	29516.044922	17354.517578	57.201080
526.270752	1100.996582	30439.126953	17817.562500	56.978977
526.620178	1103.706543	31463.101563	18342.724609	56.783142
526.969482	1103.663574	32721.966797	19007.212891	56.624004
527.318787	1102.416138	34311.453125	19854.136719	56.465721
527.668030	1102.416138	36333.511719	20996.062500	56.466164
528.017212	1100.588013	38582.175781	22347.414063	56.686039
528.366394	1098.243652	40807.421875	23739.414063	57.017471
528.715515	1099.964233	42803.152344	24944.337891	57.176380
529.064636	1102.201050	44375.453125	25835.414063	57.155888
529.413635	1101.125732	45543.597656	26448.869141	57.034954
529.762695	1100.652466	46308.406250	26805.320313	56.858982
530.111633	1098.028442	46743.621094	26985.968750	56.715088
530.460510	1096.415405	46786.746094	26944.523438	56.572380
530.809387	1096.996216	46388.996094	26642.310547	56.401382
531.158142	1095.017456	45484.238281	26052.386719	56.223938
531.506958	1094.006470	44063.546875	25126.812500	55.929867
531.855652	1096.759521	42402.140625	23975.162109	55.388428
532.204407	1096.049683	40807.140625	22816.416016	54.695972
532.552979	1095.081909	39555.570313	21911.810547	54.124973
532.901611	1093.963379	38680.625000	21275.429688	53.693165
533.250183	1090.522217	38107.992188	20852.111328	53.384499
533.598755	1091.511597	37671.503906	20528.781250	53.136341
533.947205	1093.834473	37317.117188	20256.509766	52.901546
534.295593	1093.770020	37026.246094	20018.673828	52.667965
534.643982	1093.146362	36790.921875	19825.060547	52.473614
534.992249	1098.329590	36565.519531	19647.683594	52.300034
535.340576	1099.211426	36345.882813	19472.925781	52.128937
535.688843	1096.867065	36093.421875	19268.130859	51.923008
536.037048	1098.351074	35689.480469	18982.587891	51.701801
536.385315	1097.727417	35053.160156	18561.117188	51.430328
536.733398	1093.404297	34230.691406	18051.548828	51.175411
537.081421	1097.963989	33336.515625	17512.814453	50.916836
537.429443	1098.781372	32512.695313	17030.605469	50.715820
537.777466	1099.964233	31796.349609	16609.951172	50.527081
538.125427	1099.491089	31195.392578	16249.883789	50.340382
538.473267	1100.652466	30718.154297	15953.630859	50.149330
538.821167	1096.157349	30342.189453	15704.332031	49.949257
539.169006	1093.490356	30042.281250	15486.994141	49.720570
539.516846	1095.404541	29785.906250	15308.499023	49.539371
539.864502	1094.393677	29725.533203	15215.196289	49.319740
540.212219	1093.597778	29960.894531	15256.792969	49.063114
540.559875	1096.415527	30618.244141	15506.566406	48.811852
540.907410	1095.189453	31609.419922	15923.092773	48.593403
541.254944	1091.812866	32749.218750	16418.810547	48.415203
541.602478	1088.629517	33840.988281	16886.714844	48.234951
541.949951	1091.081543	34812.960938	17299.087891	48.063770
542.297363	1090.995483	35665.558594	17653.068359	47.902477
542.644714	1090.952393	36393.113281	17946.910156	47.747665
542.992126	1094.909912	36898.488281	18142.570313	47.614403
543.339355	1094.909912	37133.890625	18206.664063	47.481239
543.686646	1095.641113	36962.300781	18069.830078	47.325817
544.033813	1096.028320	36350.503906	17733.574219	47.192722
544.380920	1098.544800	35273.101563	17175.892578	47.044785
544.728027	1098.157593	33893.148438	16470.773438	46.874889
545.075134	1099.577026	32485.080078	15745.047852	46.663170
545.422180	1102.609741	31191.500000	15083.052734	46.463806
545.769165	1100.136230	30101.513672	14513.131836	46.249516
546.116150	1101.512695	29163.873047	14024.577148	46.051239
546.463013	1103.620605	28333.876953	13581.962891	45.825283
546.809875	1101.147095	27652.351563	13206.045898	45.590767
547.156677	1100.222290	27041.158203	12862.797852	45.343681
547.503418	1099.340576	26523.564453	12577.666016	45.147198
547.850098	1099.555664	26053.443359	12316.880859	44.952217
548.196777	1099.060913	25603.150391	12066.418945	44.757256
548.543396	1099.684448	25154.019531	11818.411133	44.560474
548.890015	1099.921143	24654.173828	11549.688477	44.364677
549.236633	1099.577026	24106.105469	11257.824219	44.153759
549.583069	1099.383545	23500.394531	10950.604492	43.976677
549.929504	1100.953613	22837.970703	10615.659180	43.771896
550.275879	1100.846191	22184.296875	10294.586914	43.606430
550.622253	1102.136597	21534.345703	9966.782227	43.385643
550.968567	1102.953979	20971.779297	9689.049805	43.213905
551.314819	1105.255249	20489.205078	9438.696289	42.991451
551.661072	1104.029297	20128.861328	9247.855469	42.806297
552.007263	1102.029175	19904.488281	9113.366211	42.607922
552.353394	1103.190430	19757.716797	9018.235352	42.429619
552.699524	1104.480957	19663.253906	8938.633789	42.212666
553.045593	1102.373169	19617.462891	8892.391602	42.073891
553.391602	1104.631470	19596.880859	8854.924805	41.911034
553.737549	1101.168579	19576.876953	8817.157227	41.762882
554.083435	1101.770996	19533.453125	8763.795898	41.569862
554.429321	1103.706543	19478.607422	8706.993164	41.378654
554.775146	1101.942993	19381.414063	8635.156250	41.211330
555.120972	1101.018188	19274.023438	8566.631836	41.080788
555.466675	1102.115112	19112.755859	8472.125000	40.920307
555.812439	1104.222900	18910.880859	8361.637695	40.756748
556.158081	1103.556274	18680.765625	8235.171875	40.573082
556.503662	1102.824829	18449.339844	8118.490234	40.444237
556.849182	1104.739136	18225.054688	7986.323242	40.195427
557.194702	1103.061401	18018.554688	7870.565918	40.007725
557.540161	1104.588501	17818.185547	7764.166016	39.845268
557.885620	1104.330322	17654.017578	7671.444824	39.681198
558.231018	1102.050537	17501.242188	7592.403320	39.577271
558.576355	1100.265381	17381.789063	7518.048828	39.417583
558.921692	1102.115112	17289.044922	7454.644043	39.244804
559.266968	1101.985962	17192.560547	7385.710938	39.052212
559.612183	1100.007324	17111.517578	7325.982910	38.884377
559.957336	1100.157837	17059.187500	7281.547363	38.732868
560.302429	1099.211426	17023.355469	7244.812012	38.592972
560.647522	1098.673706	17005.095703	7220.227051	38.484791
560.992554	1097.211182	16996.341797	7192.439453	38.336864
561.337524	1097.168213	17005.804688	7174.781250	38.203232
561.682434	1095.275513	17022.130859	7155.853516	38.052570
562.027344	1095.662720	17028.236328	7133.894043	37.898659
562.372253	1099.039307	17038.152344	7116.710449	37.754112
562.717102	1099.189941	17022.064453	7093.761230	37.647545
563.061829	1097.813354	17045.335938	7078.059570	37.499531
563.406494	1096.974609	17039.208984	7058.444824	37.394196
563.751160	1093.253784	17025.033203	7031.517090	37.273071
564.095825	1093.963501	17028.648438	7013.299805	37.147495
564.440369	1093.060059	17044.304688	6997.748535	37.017101
564.784973	1095.146362	17087.515625	6994.565918	36.888966
565.129456	1094.329224	17191.763672	7009.212891	36.744263
565.473877	1093.705444	17318.017578	7039.087402	36.644894
565.818298	1091.167480	17494.449219	7088.534180	36.561993
566.162659	1090.801880	17690.904297	7151.251953	36.508514
566.507019	1087.661621	17885.035156	7209.215332	36.443520
566.851196	1090.844849	18033.029297	7252.252930	36.367260
567.195435	1090.930786	18181.650391	7291.698730	36.281494
567.539612	1094.350586	18281.232422	7317.465820	36.208515
567.883789	1093.038574	18350.337891	7322.757324	36.099037
568.227844	1094.350708	18373.931641	7322.541992	36.043652
568.571960	1094.243042	18368.382813	7307.744141	35.969955
568.915955	1094.888306	18297.125000	7274.514160	35.923386
569.259888	1096.587402	18214.556641	7237.412598	35.873562
569.603821	1099.405151	18094.542969	7181.771973	35.788860
569.947632	1099.426514	17961.880859	7117.204590	35.687439
570.291504	1100.544922	17867.480469	7068.295410	35.592373
570.635193	1097.146606	17825.111328	7045.840820	35.561375
570.979004	1099.275879	17849.824219	7038.398926	35.456287
571.322632	1100.695435	17954.826172	7060.466797	35.360893
571.666321	1101.190186	18077.617188	7094.083008	35.301258
572.009949	1102.072021	18221.482422	7132.238770	35.224152
572.353455	1102.566772	18347.908203	7166.351074	35.161869
572.696960	1101.254761	18457.728516	7190.783203	35.085052
573.040405	1099.146973	18533.201172	7206.914551	35.033546
573.383850	1098.587769	18599.574219	7213.796875	34.942081
573.727173	1099.297607	18644.417969	7220.142090	34.886307
574.070557	1099.577148	18657.710938	7210.850098	34.805939
574.413879	1100.953735	18657.667969	7199.494141	34.736229
574.757019	1099.813721	18610.478516	7175.297363	34.695904
575.100281	1097.447876	18509.691406	7133.637207	34.666351
575.443420	1097.125122	18375.201172	7083.759277	34.648731
575.786499	1094.458130	18211.888672	7019.020020	34.611282
576.129517	1091.361084	18045.138672	6959.098633	34.610207
576.472534	1090.909302	17876.083984	6891.068848	34.555256
576.815491	1091.296509	17689.091797	6819.125000	34.509575
577.158447	1090.221191	17486.445313	6744.513672	34.485332
577.501343	1090.049072	17278.958984	6663.083984	34.425018
577.844116	1089.167236	17046.132813	6578.342285	34.399864
578.187012	1089.769531	16777.798828	6481.512695	34.368519
578.529724	1090.479370	16485.935547	6374.467285	34.321735
578.872375	1090.285645	16187.790039	6265.507324	34.278656
579.215027	1092.199951	15902.677734	6162.677734	34.235748
579.557617	1093.834473	15631.097656	6061.331543	34.170784
579.900146	1097.426270	15371.777344	5959.534180	34.061848
580.242676	1098.200684	15135.146484	5877.760742	34.049858
580.585144	1098.372681	14925.915039	5795.922852	33.972416
580.927612	1099.964355	14731.781250	5725.010742	33.928322
581.269958	1099.598633	14558.878906	5663.024414	33.905422
581.612305	1099.770752	14418.152344	5610.028320	33.864910
581.954590	1099.125488	14297.750000	5564.904297	33.835182
582.296814	1099.512573	14190.812500	5530.168945	33.844280
582.639038	1100.200806	14103.037109	5496.917480	33.813522
582.981140	1099.340576	14021.628906	5458.654785	33.734848
583.323242	1099.512573	13931.920898	5431.511719	33.758270
583.665283	1098.265015	13851.415039	5409.250977	33.803303
584.007324	1100.028687	13781.985352	5382.258301	33.766315
584.349304	1102.007446	13709.204102	5362.320313	33.792709
584.691284	1102.308472	13636.271484	5341.973633	33.825417
585.033142	1102.351685	13574.391602	5319.562012	33.813316
585.374939	1104.566895	13519.954102	5297.129395	33.769085
585.716736	1107.836060	13466.011719	5280.589844	33.765129
586.058411	1106.567139	13411.962891	5257.834473	33.735344
586.400085	1110.137451	13364.902344	5246.564453	33.753620
586.741760	1109.212769	13321.413086	5242.929688	33.849075
587.083374	1109.234253	13313.434570	5242.822266	33.870209
587.424988	1108.954590	13301.734375	5241.359375	33.892231
587.766541	1107.018799	13296.334961	5245.703613	33.953377
588.107971	1106.717773	13323.178711	5252.736816	33.937973
588.449341	1105.964966	13351.696289	5262.565918	33.943264
588.790710	1102.932373	13396.068359	5282.073730	33.995731
589.132080	1100.415894	13431.727539	5303.409668	34.083916
589.473267	1097.619873	13485.625977	5325.304688	34.127239
589.814514	1098.308105	13539.355469	5345.931152	34.142006
590.155762	1094.866943	13599.190430	5366.772461	34.163425
590.496948	1095.662720	13625.881836	5374.171387	34.145523
590.838013	1093.791504	13636.012695	5377.526367	34.154518
591.179077	1093.425903	13644.377930	5385.591797	34.197933
591.520081	1093.124756	13635.905273	5385.011230	34.217987
591.861023	1092.909668	13604.050781	5380.967773	34.273918
592.201965	1094.049683	13567.380859	5373.697754	34.310387
592.542847	1094.350708	13520.362305	5359.975586	34.328190
592.883606	1094.350586	13474.616211	5349.264648	34.368519
593.224365	1093.812988	13432.461914	5338.940918	34.405128
593.565125	1095.038940	13414.565430	5340.618164	34.462193
593.905823	1093.662354	13405.166016	5343.650879	34.520466
594.246521	1093.640991	13429.277344	5354.556152	34.541508
594.587097	1095.813232	13479.755859	5379.225586	34.588436
594.927612	1095.060425	13530.147461	5398.496582	34.607204
595.268127	1098.501831	13617.537109	5438.028320	34.663425
595.608582	1096.738159	13737.702148	5487.754883	34.736408
595.948975	1097.361816	13919.186523	5558.064941	34.789925
596.289307	1097.921021	14138.355469	5644.936035	34.868587
596.629700	1097.920898	14373.543945	5737.657227	34.949291
596.969971	1098.695190	14583.634766	5815.451660	34.977959
597.310242	1095.791748	14748.256836	5880.492676	35.046429
597.650391	1097.017700	14833.452148	5916.711426	35.086933
597.990540	1098.157715	14878.662109	5940.435059	35.138607
598.330627	1096.910278	14868.209961	5940.456543	35.171310
598.670654	1098.071655	14827.321289	5926.562500	35.169369
599.010620	1096.802612	14715.005859	5890.386230	35.199825
599.350525	1097.211182	14560.815430	5840.379395	35.229557
599.690491	1095.447510	14334.487305	5763.187500	35.257393
600.030334	1095.963745	14053.934570	5667.669922	35.281033
600.370178	1098.437134	13753.231445	5558.882813	35.247082
600.710022	1097.920898	13462.032227	5460.806152	35.286686
601.049683	1100.523438	13202.603516	5374.623047	35.317066
601.389343	1100.222290	13015.827148	5307.410645	35.308224
601.728943	1098.458618	12878.240234	5262.394043	35.348156
602.068542	1099.340454	12808.490234	5238.132813	35.346653
602.408081	1099.555542	12813.306641	5244.778809	35.387665
602.747498	1096.587402	12897.833984	5274.288086	35.400505
603.087036	1097.426270	13028.324219	5321.992676	35.408619
603.426453	1096.200317	13228.691406	5391.979980	35.407234
603.765869	1096.049683	13460.613281	5473.517090	35.403332
604.105103	1095.404419	13732.733398	5575.980957	35.455093
604.444336	1095.038940	14025.156250	5682.854980	35.481628
604.783569	1092.694580	14310.224609	5782.781250	35.483837
605.122681	1093.339722	14537.800781	5869.867188	35.527847
605.461792	1093.898926	14714.596680	5936.133301	35.550560
605.800842	1091.619141	14821.641602	5980.053223	35.603977
606.139954	1091.188965	14841.731445	5987.581055	35.608719
606.478943	1092.458008	14791.166016	5973.062500	35.628212
606.817932	1092.909668	14669.818359	5933.036133	35.649696
607.156799	1096.307861	14492.224609	5881.718262	35.722900
607.495605	1098.050049	14283.812500	5809.515625	35.731461
607.834412	1097.770386	14040.190430	5720.815918	35.720100
608.173157	1099.641602	13796.268555	5631.751465	35.695385
608.511841	1100.394409	13598.674805	5562.150879	35.698963
608.850464	1098.394165	13492.187500	5518.317871	35.662399
609.189148	1099.856567	13428.931641	5493.390137	35.635548
609.527710	1100.674072	13402.199219	5484.571777	35.637024
609.866211	1099.684692	13397.660156	5488.723145	35.689114
610.204712	1098.544800	13401.832031	5487.562012	35.673531
610.543091	1097.619873	13421.490234	5495.025391	35.682014
610.881409	1095.705566	13409.467773	5484.873535	35.644413
611.219788	1093.963623	13372.667969	5471.796387	35.653870
611.558044	1093.812988	13309.347656	5450.826172	35.667805
611.896301	1091.705078	13199.097656	5416.693359	35.721882
612.234436	1092.737671	13027.894531	5354.835938	35.710449
612.572693	1094.694824	12793.499023	5277.600586	35.754986
612.910767	1094.221558	12539.918945	5186.944336	35.757740
613.248840	1094.178589	12277.156250	5094.652832	35.772888
613.586792	1096.888550	12025.425781	5003.136230	35.743553
613.924805	1098.695190	11788.512695	4923.535645	35.780220
614.262695	1099.727661	11571.411133	4841.309570	35.730473
614.600525	1101.254761	11383.238281	4775.581055	35.735577
614.938293	1102.953979	11231.972656	4722.241699	35.731869
615.276123	1103.040039	11102.236328	4675.719238	35.729664
615.613892	1100.824707	10995.621094	4630.444824	35.671474
615.951538	1099.362183	10904.834961	4600.183105	35.702724
616.289185	1099.835205	10831.686523	4576.480957	35.724403
616.626770	1097.641479	10767.162109	4554.714844	35.752274
616.964294	1097.727417	10728.683594	4539.336426	35.734863
617.301819	1096.781128	10697.540039	4524.280762	35.700298
617.639221	1097.619873	10677.108398	4515.828613	35.682583
617.976624	1097.211060	10657.708008	4511.505371	35.712521
618.313965	1096.243286	10649.468750	4508.171387	35.714935
618.651306	1096.028198	10634.735352	4506.042480	35.749229
618.988525	1094.178589	10620.928711	4500.729980	35.757748
619.325684	1097.297363	10602.753906	4501.805176	35.816349
619.662964	1099.921387	10589.075195	4491.438477	35.740982
620.000000	1099.813721	10570.235352	4479.888184	35.690853
620.337097	1098.974854	10547.738281	4473.285156	35.711658
620.674133	1097.942505	10512.743164	4458.487793	35.694279
621.011047	1097.017578	10483.148438	4449.304199	35.715321
621.347961	1096.092773	10448.735352	4439.818848	35.751671
621.684875	1094.737793	10412.816406	4426.677734	35.757801
622.021729	1095.813232	10378.791016	4417.386230	35.781330
622.358521	1095.684204	10344.764648	4401.190918	35.738762
622.695313	1097.103638	10306.308594	4389.038574	35.746136
623.031982	1096.824097	10284.176758	4376.456543	35.697250
623.368652	1095.296997	10261.485352	4376.886230	35.801025
623.705261	1095.963745	10251.548828	4375.983398	35.825340
624.041748	1097.469238	10251.785156	4374.821777	35.801170
624.378296	1099.340454	10255.355469	4379.875977	35.829296
624.714722	1099.426636	10275.638672	4390.823730	35.868797
625.051147	1101.190186	10313.256836	4400.115234	35.810913
625.387512	1100.501953	10365.477539	4422.828125	35.858986
625.723877	1098.609253	10452.929688	4445.303711	35.776993
626.060120	1099.770630	10549.522461	4482.641602	35.798519
626.396301	1098.716797	10676.248047	4526.926758	35.794296
626.732483	1099.362183	10795.445313	4575.255371	35.848427
627.068604	1102.287109	10906.147461	4618.271484	35.863266
627.404724	1102.631348	11006.245117	4656.469238	35.884254
627.740662	1102.609863	11092.771484	4690.236816	35.911598
628.076721	1104.029175	11155.273438	4709.121094	35.867119
628.412720	1104.889526	11191.256836	4716.498535	35.806835
628.748596	1103.620605	11195.687500	4715.638184	35.790665
629.084473	1105.943481	11178.266602	4704.389648	35.726082
629.420227	1107.277100	11111.333984	4685.354980	35.766270
629.755981	1106.911377	11027.991211	4656.039063	35.773602
630.091675	1108.180298	10910.987305	4614.894043	35.772549
630.427307	1110.503174	10777.874023	4567.641113	35.760891
630.762939	1106.266113	10644.050781	4513.935547	35.728100
631.098450	1105.362671	10515.711914	4464.961914	35.701107
631.434021	1104.781982	10400.235352	4417.537109	35.638447
631.769470	1103.685059	10291.620117	4381.295898	35.672985
632.104980	1102.846313	10191.930664	4348.840332	35.713104
632.440308	1102.029053	10108.780273	4321.116699	35.740829
632.775635	1101.813965	10030.147461	4294.748047	35.761814
633.110901	1099.211426	9979.409180	4277.734863	35.793388
633.446106	1098.480103	9941.985352	4262.421387	35.777008
633.781250	1099.641602	9918.605469	4251.451172	35.739002
634.116394	1099.232910	9898.128906	4245.537109	35.757942
634.451538	1102.158081	9885.289063	4244.267578	35.774364
634.786560	1102.867798	9865.500977	4230.804199	35.696308
635.121582	1102.502075	9830.788086	4219.598145	35.712582
635.456543	1102.308594	9802.785156	4207.769043	35.692993
635.791443	1103.534424	9758.627930	4194.691895	35.714893
636.126221	1104.502441	9707.848633	4179.593262	35.742966
636.461060	1105.190674	9659.993164	4159.052734	35.697632
636.795776	1107.190918	9596.716797	4136.877930	35.687355
637.130493	1105.943481	9518.750000	4110.853516	35.718285
637.465210	1103.878784	9428.092773	4079.215088	35.743153
637.799805	1102.028931	9344.297852	4048.717041	35.750935
638.134399	1101.233276	9254.458984	4013.702148	35.721676
638.468933	1101.254761	9165.372070	3987.913818	35.796345
638.803345	1101.125610	9083.641602	3961.652344	35.834904
639.137756	1100.050293	9002.297852	3934.100586	35.863850
639.472168	1100.394409	8935.709961	3906.957031	35.819393
639.806519	1100.007324	8868.152344	3882.136963	35.814594
640.140747	1096.695190	8796.789063	3858.585938	35.868271
640.474976	1094.071167	8722.736328	3829.442383	35.856483
640.809204	1094.759277	8651.587891	3802.707764	35.834457
641.143372	1095.899292	8599.172852	3784.189697	35.828236
641.477478	1095.770264	8539.037109	3758.982178	35.780148
641.811462	1095.469116	8489.138672	3737.538818	35.734215
642.145447	1096.630615	8438.615234	3721.278320	35.748478
642.479370	1098.974976	8393.835938	3707.986572	35.765064
642.813293	1100.846069	8347.163086	3692.371338	35.763348
643.147095	1100.846191	8300.597656	3678.929443	35.807949
643.480957	1101.039673	8259.368164	3666.540527	35.839386
643.814758	1104.373413	8223.168945	3653.162354	35.803658
644.148438	1105.362793	8195.423828	3645.827881	35.831356
644.482117	1105.986450	8168.646973	3638.838135	35.862568
644.815735	1103.061401	8131.695801	3626.728760	35.905518
645.149292	1102.717163	8109.973145	3621.308594	35.942619
645.482788	1101.899902	8092.078125	3618.061035	35.995667
645.816223	1099.942749	8076.871582	3615.738037	36.058781
646.149658	1099.706177	8067.816895	3610.489990	36.032486
646.483032	1100.502075	8075.860840	3611.458008	35.997517
646.816345	1100.093384	8077.473633	3610.382813	35.977535
647.149658	1098.200684	8077.538574	3607.565430	35.954193
647.482849	1096.200317	8084.291992	3609.113525	35.959934
647.816101	1096.824097	8078.957520	3609.823486	35.991859
648.149231	1098.308105	8086.378418	3613.695068	35.995445
648.482239	1100.523560	8096.530762	3614.770508	35.938313
648.815247	1100.953613	8095.196777	3614.167969	35.932613
649.148254	1099.426636	8089.260742	3610.920410	35.930664
649.481201	1100.222412	8077.538574	3606.661865	35.922688
649.814087	1101.082764	8073.194824	3604.038086	35.899529
650.146973	1098.630859	8060.848633	3600.682861	35.937572
650.479736	1098.931885	8054.697266	3596.252197	35.902882
650.812500	1101.921509	8054.976563	3600.360107	35.932961
651.145203	1101.104248	8043.039551	3601.285156	36.015617
651.477844	1100.803101	8051.212402	3602.382080	35.991825
651.810486	1097.705933	8047.298340	3599.155518	35.994194
652.143005	1096.716675	8036.156250	3601.414063	36.093655
652.475525	1096.716675	8036.543457	3598.187500	36.045147
652.807922	1097.426392	8025.961426	3596.789795	36.073475
653.140381	1097.168213	8024.478027	3593.735352	36.039490
653.472717	1095.383057	7998.733887	3588.336914	36.112228
653.805115	1095.727173	7972.062988	3582.959961	36.170906
654.137390	1093.770020	7941.564453	3575.324951	36.238747
654.469543	1093.296753	7907.625000	3559.387451	36.189785
654.801758	1095.619629	7876.094238	3543.449951	36.101166
655.133850	1096.867065	7834.734375	3532.071777	36.142067
655.465881	1097.490723	7790.793457	3520.478760	36.200188
655.797974	1099.082397	7760.961426	3508.391357	36.165607
656.129944	1099.921143	7724.742188	3499.013916	36.213699
656.461853	1098.114502	7702.911133	3493.744629	36.271065
656.793762	1096.974487	7684.500000	3486.603760	36.275070
657.125610	1097.189575	7687.489258	3486.689941	36.257843
657.457397	1096.845581	7706.740234	3492.024170	36.236263
657.789124	1098.265137	7744.443359	3506.907715	36.241016
658.120789	1096.652100	7805.526367	3532.738525	36.311405
658.452393	1095.963867	7895.795410	3572.098633	36.414650
658.783997	1096.393921	8007.443848	3611.909912	36.398464
659.115540	1099.706177	8137.502930	3658.969482	36.364552
659.447083	1099.082520	8251.990234	3706.243896	36.448971
659.778503	1097.383301	8362.735352	3748.098633	36.484333
660.109924	1099.276001	8457.262695	3780.532959	36.440086
660.441284	1099.770630	8524.668945	3809.138916	36.490307
660.772522	1100.394287	8568.072266	3827.205566	36.514851
661.103760	1101.082520	8577.277344	3835.292236	36.572212
661.434998	1102.028809	8569.641602	3833.916260	36.583141
661.766113	1104.007690	8515.679688	3814.859619	36.575447
662.097229	1104.029419	8421.323242	3778.769287	36.553673
662.428345	1104.717651	8297.867188	3735.043701	36.567101
662.759277	1102.179565	8148.234863	3680.735352	36.595734
663.090332	1102.609741	8003.937988	3627.718506	36.588737
663.421204	1101.942993	7856.973145	3574.550537	36.603943
663.752075	1102.846313	7713.859375	3523.383057	36.613701
664.082886	1102.867798	7589.284668	3478.194336	36.620010
664.413635	1100.889160	7478.367676	3438.533447	36.654678
664.744324	1099.233032	7379.688965	3402.142090	36.667866
665.075012	1097.899536	7287.720215	3369.729736	36.702679
665.405640	1097.963989	7214.679199	3343.812256	36.716572
665.736206	1098.394165	7161.597168	3328.433838	36.779892
666.066772	1095.727051	7110.623047	3312.130615	36.848576
666.397278	1096.867065	7076.941895	3297.182617	36.794113
666.727661	1095.555054	7038.851074	3284.148682	36.824581
667.058044	1097.469238	7009.146973	3276.040527	36.851997
667.388306	1097.512329	6988.822266	3272.685059	36.921719
667.718567	1098.673828	6970.820313	3270.749268	36.989464
668.048828	1099.899780	6964.669922	3268.404785	36.975105
668.378967	1102.889404	6962.884277	3268.921143	36.963028
668.709167	1103.921875	6958.732910	3271.286865	37.018532
669.039246	1101.878540	6962.690918	3273.739014	37.057323
669.369263	1102.416260	6956.776367	3271.179443	37.045261
669.699341	1104.846558	6948.473633	3266.039063	36.983749
670.029236	1105.083130	6938.924805	3266.577148	37.050957
670.359131	1107.147827	6934.085449	3260.403809	36.953476
670.688965	1106.502686	6921.546875	3254.962402	36.946579
671.018738	1105.384277	6902.124512	3246.660156	36.939312
671.348511	1103.878662	6880.379883	3236.078369	36.911613
671.678223	1104.308716	6849.687500	3229.045166	36.981659
672.007813	1102.867676	6814.112793	3217.753662	37.030209
672.337341	1100.157715	6783.227051	3203.213867	37.005638
672.666992	1102.201050	6750.986328	3192.803955	37.009781
672.996460	1102.115112	6716.401855	3180.372559	37.017300
673.325867	1100.673950	6688.054199	3174.909424	37.123573
673.655273	1097.275635	6651.426270	3161.424072	37.164070
673.984619	1095.382935	6617.271484	3145.916504	37.134644
674.314026	1096.415283	6586.729492	3135.033447	37.131172
674.643250	1098.243652	6561.845215	3125.139893	37.098171
674.972412	1098.802856	6540.853516	3115.203125	37.052212
675.301514	1098.243652	6515.022949	3103.889893	37.026546
675.630676	1097.404663	6495.687012	3096.146973	37.025524
675.959778	1100.243774	6470.328125	3087.221191	37.000858
676.288757	1099.189941	6442.131348	3071.176025	36.908249
676.617737	1098.265137	6422.817383	3061.583740	36.872932
676.946594	1098.566284	6406.148438	3052.291992	36.810089
677.275513	1100.673950	6395.158203	3050.549805	36.828438
677.604309	1101.899902	6392.383301	3051.883545	36.858326
677.933044	1100.781494	6398.320313	3054.743896	36.884342
678.261780	1100.803101	6410.879883	3059.432617	36.885147
678.590393	1099.340576	6432.216797	3068.143555	36.918221
678.919067	1101.254761	6468.823242	3078.467773	36.836288
679.247620	1100.523315	6513.860840	3090.404541	36.758862
679.576111	1099.125366	6559.737305	3108.836670	36.803776
679.904541	1098.179077	6620.088867	3132.129883	36.834190
680.232971	1098.006958	6676.332520	3154.411865	36.864193
680.561401	1097.490845	6732.962891	3171.597412	36.804485
680.889709	1097.082153	6787.829590	3187.577393	36.734982
681.217957	1096.350830	6834.244141	3202.654785	36.708664
681.546143	1094.006470	6873.323730	3211.000000	36.630512
681.874390	1095.318481	6900.359375	3222.119629	36.637146
682.202454	1096.393799	6914.985840	3229.668701	36.663078
682.530579	1096.157227	6905.263672	3224.549805	36.638897
682.858521	1099.017700	6874.012695	3211.042969	36.571899
683.186523	1099.426514	6833.169922	3193.212646	36.516914
683.514465	1099.641602	6772.193848	3173.618896	36.561626
683.842346	1100.157715	6708.701660	3148.411621	36.520245
684.170166	1101.727905	6635.251465	3123.462402	36.536114
684.497925	1100.673950	6558.102051	3096.878174	36.577747
684.825623	1100.609375	6474.780762	3068.358643	36.614933
685.153320	1103.814087	6395.049805	3044.398438	36.675446
685.481018	1100.932007	6318.846680	3016.739258	36.715958
685.808533	1097.920898	6247.827637	2988.499268	36.710926
686.136047	1096.910034	6188.508301	2970.282227	36.793404
686.463623	1094.716309	6143.836426	2955.204834	36.847778
686.791016	1093.898926	6115.273438	2939.417969	36.753265
687.118408	1093.038696	6102.132324	2931.030029	36.693092
687.445740	1093.705566	6096.776855	2928.362793	36.670620
687.772949	1094.221558	6093.271484	2925.975586	36.642044
688.100220	1095.705688	6093.701660	2925.609863	36.612759
688.427429	1093.985107	6090.109375	2924.383789	36.636375
688.754517	1094.995972	6091.464355	2920.017822	36.526237
689.081604	1098.157593	6083.226563	2909.371338	36.332771
689.408630	1102.158203	6065.138672	2899.649658	36.217983
689.735657	1102.394653	6042.167480	2887.110352	36.129509
690.062622	1104.502441	6012.873535	2876.722168	36.106068
690.389465	1104.244385	5970.202637	2865.000244	36.185184
690.716248	1105.685425	5911.765137	2842.438232	36.136581
691.043091	1103.599121	5852.058105	2821.596924	36.180111
691.369812	1101.125732	5789.728027	2799.077881	36.214462
691.696533	1100.910645	5724.429688	2773.892090	36.184158
692.023132	1104.050781	5671.025391	2752.018555	36.084454
692.349670	1102.287109	5605.705078	2729.886719	36.141430
692.676270	1101.039673	5552.150391	2714.874023	36.256889
693.002747	1098.523315	5502.918457	2695.904053	36.267879
693.329163	1099.146973	5454.503906	2677.385742	36.236725
693.655518	1098.566284	5414.843262	2658.329590	36.136776
693.981873	1098.286743	5380.150879	2644.370361	36.107723
694.308167	1097.318726	5352.255371	2637.337646	36.193699
694.634399	1099.340576	5318.573730	2623.636963	36.127331
694.960571	1100.588013	5295.774902	2613.097900	36.053455
695.286743	1100.222412	5279.320801	2603.376465	35.968380
695.612854	1098.652222	5266.910645	2598.322021	35.978333
695.938904	1098.630737	5266.072266	2598.279053	35.984867
696.264832	1098.845825	5277.858887	2600.429932	35.931549
696.590820	1100.846191	5295.279785	2606.989746	35.908150
696.916687	1100.394409	5332.553223	2617.442627	35.845730
697.242554	1100.114868	5381.053711	2635.358887	35.862320
697.568359	1099.856689	5452.417480	2662.824463	35.909157
697.894043	1100.738525	5550.967285	2693.215576	35.784164
698.219788	1099.534058	5673.821777	2738.532959	35.830692
698.545349	1101.792358	5811.623535	2781.893066	35.672207
698.870972	1102.136597	5945.833984	2826.887695	35.608150
699.196533	1102.846313	6066.235840	2869.989990	35.603565
699.521973	1101.211670	6169.517578	2904.403076	35.577797
699.847412	1101.125488	6241.720215	2927.760742	35.533539
700.172852	1103.534424	6290.349609	2945.117920	35.505089
700.498169	1104.201172	6309.813965	2951.828369	35.492981
700.823486	1103.749512	6299.876953	2947.031982	35.474159
701.148682	1104.244263	6248.881348	2923.846191	35.368908
701.473816	1103.663574	6161.343750	2891.863770	35.356133
701.799072	1104.351685	6041.027832	2844.202148	35.243359
702.124146	1100.867554	5895.203125	2797.787598	35.394272
702.449158	1100.544922	5739.484863	2744.598145	35.440277
702.774109	1103.018433	5585.810059	2688.591553	35.370216
703.099060	1102.674316	5439.813965	2631.336914	35.245869
703.424011	1102.502197	5303.388672	2583.825928	35.262169
703.748840	1100.630981	5186.169434	2538.766602	35.200638
704.073608	1099.426514	5079.683105	2504.202881	35.293613
704.398315	1100.846069	4983.585449	2473.618164	35.355762
704.723022	1103.513062	4910.414551	2448.690430	35.335232
705.047668	1101.942993	4846.686523	2424.601563	35.320404
705.372253	1101.770996	4791.173828	2404.018311	35.296967
705.696716	1102.953857	4744.007324	2384.209229	35.189140
706.021240	1102.674316	4704.539551	2373.326416	35.277615
706.345764	1097.641357	4671.353027	2360.980713	35.350903
706.670044	1099.942749	4651.285645	2356.550049	35.384007
706.994446	1097.189697	4638.187500	2350.484619	35.393833
707.318665	1095.318604	4627.347168	2348.441406	35.478840
707.642883	1094.587158	4623.282227	2343.817383	35.402046
707.967102	1093.038574	4619.604980	2341.580566	35.403900
708.291260	1092.113770	4615.281250	2340.483643	35.433170
708.615295	1095.447510	4613.969727	2341.322510	35.409042
708.939331	1096.630493	4619.562012	2343.666992	35.397694
709.263367	1096.415527	4626.874512	2347.172852	35.427612
709.587280	1097.641479	4638.832520	2347.581543	35.297165
709.911194	1098.888794	4662.556152	2353.216553	35.197666
710.234985	1098.071533	4684.344238	2360.206543	35.193504
710.558716	1101.104248	4710.605469	2369.132568	35.130291
710.882568	1104.373413	4740.694824	2378.423584	35.036789
711.206177	1105.212158	4770.397949	2390.124268	35.057217
711.529785	1105.319702	4803.110840	2399.028564	34.985992
711.853394	1104.459351	4831.093262	2407.050781	34.953568
712.176880	1103.857178	4846.105469	2413.417236	34.993938
712.500427	1102.394653	4857.935059	2415.912354	34.975464
712.823792	1100.458984	4866.709961	2414.750977	34.896561
713.147217	1100.351440	4868.839355	2414.234619	34.864998
713.470520	1099.878052	4855.547363	2408.900635	34.854572
713.793823	1100.437378	4835.544922	2401.480469	34.832817
714.117004	1100.523438	4811.112305	2393.952881	34.857796
714.440247	1098.200684	4783.754395	2384.144775	34.891476
714.763367	1098.415771	4748.201172	2371.713135	34.886909
715.086365	1097.232788	4712.841797	2358.937744	34.896057
715.409485	1096.781128	4687.011230	2350.656982	34.924667
715.732361	1097.275879	4667.696777	2340.311523	34.814819
716.055298	1097.405029	4649.586426	2336.848877	34.892471
716.378174	1100.308472	4628.573242	2331.450195	34.893688
716.700928	1100.760132	4606.527832	2323.879395	34.888771
717.023804	1101.340820	4585.686035	2320.459717	34.988464
717.346558	1101.728027	4558.823242	2311.361572	34.989883
717.669189	1098.609253	4527.421387	2297.725586	34.971771
717.991760	1097.469238	4488.470215	2283.766846	34.983700
718.314392	1096.587402	4450.594238	2268.539063	34.941837
718.636902	1099.577026	4408.395508	2253.440430	34.872372
718.959351	1100.157715	4350.775391	2232.878662	34.846329
719.281738	1098.566284	4297.457031	2216.726318	34.954620
719.604065	1098.781250	4234.267090	2193.153320	34.902790
719.926453	1097.727417	4175.249023	2172.097168	34.910229
720.248718	1095.963745	4124.210449	2155.449951	34.986790
720.570923	1096.028198	4073.709229	2135.533447	34.909893
720.893066	1093.705322	4031.316406	2121.854492	34.999500
721.215088	1096.178833	3985.740723	2106.863037	34.977074
721.537170	1098.501709	3947.241943	2093.657227	34.933178
721.859192	1100.587891	3913.947754	2083.053467	34.921432
722.181152	1099.103882	3881.728271	2075.826904	35.100784
722.503052	1100.480469	3859.360107	2066.987305	35.032585
722.824951	1102.652832	3835.615479	2058.513184	34.975243
723.146790	1103.190552	3823.097412	2055.458984	35.011070
723.468506	1104.330444	3809.010010	2051.695068	35.026871
723.790161	1104.480957	3791.265625	2046.533203	35.062439
724.111816	1107.599609	3779.392822	2043.543701	35.030560
724.433472	1109.083618	3764.789063	2040.575439	35.075115
724.755005	1108.933105	3761.132813	2042.747925	35.209068
725.076477	1107.642578	3755.927979	2042.274292	35.291954
725.397888	1106.309082	3752.292969	2040.897949	35.321033
725.719299	1106.760864	3754.831055	2038.532104	35.186802
726.040710	1105.642456	3757.368652	2040.553955	35.256714
726.361938	1102.781738	3763.111572	2044.468384	35.397366
726.683167	1101.319336	3769.628174	2045.866455	35.398720
727.004395	1098.523315	3782.791260	2050.813477	35.476715
727.325500	1098.888916	3802.943848	2058.383789	35.483559
727.646667	1097.361816	3818.666504	2063.760986	35.512348
727.967651	1096.738037	3837.765625	2068.944336	35.468681
728.288635	1095.533569	3854.434570	2074.428955	35.481354
728.609558	1096.609009	3870.242920	2081.074951	35.493725
728.930481	1097.748901	3888.051514	2088.732178	35.515259
729.251282	1097.533813	3895.902100	2095.980225	35.679596
729.572021	1097.856567	3901.946045	2100.840820	35.768627
729.892761	1101.147217	3904.398193	2101.765869	35.694935
730.213440	1103.082886	3907.000244	2102.948486	35.659595
730.534119	1103.125854	3909.043701	2104.152832	35.675560
730.854675	1105.298340	3910.914795	2105.852051	35.662525
731.175171	1103.986328	3916.764893	2110.540771	35.785057
731.495605	1106.180176	3921.561035	2115.724365	35.858173
731.816101	1105.470215	3924.852295	2116.907227	35.874420
732.136475	1105.083130	3927.583008	2119.638916	35.945290
732.456787	1101.405273	3927.024170	2122.435059	36.134731
732.777039	1100.803101	3935.347900	2122.843506	36.056595
733.097229	1101.018066	3941.176758	2124.004883	36.018650
733.417480	1098.867310	3944.983398	2126.026855	36.089867
733.737549	1097.125122	3943.112305	2128.177734	36.228294
734.057617	1098.179077	3932.616455	2126.715088	36.287128
734.377563	1095.189331	3911.086670	2122.241455	36.473351
734.697510	1096.071289	3878.867432	2111.939209	36.505295
735.017517	1093.770020	3843.358398	2099.636475	36.582439
735.337341	1093.189331	3805.761963	2085.871338	36.595589
735.657166	1093.683960	3767.800537	2069.933838	36.507378
735.976868	1096.243286	3729.903076	2056.728271	36.469593
736.296631	1096.479980	3685.919434	2042.382080	36.529224
736.616272	1096.609009	3646.989746	2031.757324	36.667007
736.935852	1094.200195	3613.695068	2019.798828	36.737469
737.255371	1092.995728	3579.648193	2007.775879	36.787617
737.574829	1092.716187	3553.386719	2000.613647	36.896347
737.894348	1093.167847	3539.879150	1993.322266	36.790379
738.213745	1090.952515	3535.707031	1992.332886	36.869976
738.533081	1090.780396	3536.954102	1992.720215	36.871452
738.852356	1092.436523	3542.008545	1996.570190	36.909863
739.171570	1091.425659	3550.095947	2004.054810	37.118809
739.490784	1090.414673	3554.031982	2006.571167	37.187454
739.809937	1089.769409	3559.795898	2007.990601	37.174549
740.129028	1086.263550	3556.870850	2006.592651	37.251125
740.447998	1089.360840	3549.062744	2008.549927	37.369938
740.767029	1089.791016	3542.073242	2009.560913	37.506691
741.085999	1090.866333	3529.534180	2005.603394	37.509701
741.404846	1093.941895	3505.854004	1998.441040	37.501331
741.723633	1096.566040	3479.054688	1989.408081	37.475185
742.042358	1097.619995	3447.330566	1978.438599	37.486263
742.361145	1098.308105	3413.713379	1969.878540	37.642242
742.679810	1098.630737	3378.698242	1960.759277	37.811539
742.998413	1098.071411	3342.435303	1949.209473	37.923355
743.316956	1096.544434	3307.721191	1943.445190	38.300907
743.635498	1100.953491	3277.159180	1936.196777	38.380718
743.953979	1099.835205	3247.563477	1927.378418	38.531094
744.272400	1103.276489	3222.377930	1919.076294	38.497437
744.590698	1101.018066	3197.170166	1914.000488	38.784515
744.909058	1098.652222	3172.715576	1910.042969	39.120827
745.227356	1099.361938	3152.347656	1906.537109	39.317131
745.545471	1099.835083	3136.452881	1903.439941	39.457813
745.863586	1101.706299	3118.794678	1898.794434	39.516769
746.181702	1101.835449	3099.072021	1894.600464	39.693096
746.499756	1105.083130	3085.199463	1893.546509	39.819042
746.817810	1108.782593	3073.305420	1891.911743	39.863583
747.135742	1106.696411	3063.347412	1892.169922	40.143772
747.453613	1107.449097	3057.948975	1891.202026	40.182156
747.771423	1105.448730	3051.646729	1893.954956	40.515209
748.089233	1108.997559	3048.893799	1898.149170	40.680096
748.406982	1110.008545	3053.905273	1902.192505	40.752369
748.724609	1109.685913	3058.378906	1908.064453	40.969952
749.042236	1107.018799	3059.346924	1914.301636	41.349751
749.359863	1104.480957	3064.616455	1921.356567	41.674446
749.677429	1103.362427	3072.724854	1928.023926	41.874542
749.994873	1101.577393	3079.026611	1936.153931	42.204700
750.312256	1100.243896	3083.586182	1944.133301	42.548855
750.629639	1103.491699	3088.361084	1949.402832	42.617973
750.946960	1104.222900	3091.178711	1956.521851	42.894711
751.264282	1104.782104	3090.511719	1960.630005	43.099922
751.581482	1103.943237	3088.726563	1966.135986	43.440144
751.898621	1101.728027	3083.779785	1972.394897	43.927555
752.215698	1100.243774	3078.725586	1976.653564	44.297085
752.532715	1102.738770	3077.456787	1985.299927	44.693024
752.849792	1101.534424	3074.101318	1993.214844	45.204063
753.166748	1101.620483	3069.283447	2001.667480	45.741928
753.483643	1101.469849	3068.767090	2009.775879	46.170250
753.800476	1100.501953	3066.680664	2015.002319	46.511559
754.117310	1095.877808	3065.132568	2027.692139	47.318119
754.434082	1092.780518	3060.593994	2038.940918	48.081814
754.750732	1091.791138	3060.551025	2052.770508	48.811405
755.067383	1092.264404	3061.110352	2060.018799	49.153385
755.383911	1093.511963	3057.410889	2069.202881	49.681320
755.700562	1093.425903	3055.905273	2080.924561	50.318932
756.016968	1093.382935	3049.216309	2090.086914	50.960579
756.333435	1095.490601	3043.925537	2100.174072	51.563614
756.649780	1097.447754	3042.161621	2110.111084	52.072613
756.966064	1096.996094	3042.914795	2120.477783	52.596325
757.282410	1097.017578	3046.441650	2134.027832	53.195724
757.598633	1096.630493	3049.990723	2147.190918	53.782215
757.914795	1100.329956	3059.734131	2159.730225	54.067471
758.230896	1099.577148	3072.273438	2174.355713	54.482719
758.546936	1096.673706	3082.403320	2195.691406	55.345787
758.862976	1095.146606	3093.996094	2213.371094	55.943405
759.178894	1094.221558	3103.352295	2230.620605	56.561726
759.494812	1095.296997	3115.203125	2245.654785	56.951054
759.810669	1094.931274	3124.688232	2264.560303	57.624092
760.126526	1094.027832	3134.172852	2281.293213	58.195145
760.442261	1093.662354	3138.109131	2295.295166	58.775452
760.757935	1092.414917	3141.571777	2305.920166	59.219738
761.073608	1095.877808	3145.593750	2318.158447	59.631714
761.389160	1094.006592	3143.851563	2331.342773	60.362427
761.704712	1095.576538	3141.012451	2343.752686	61.022499
762.020203	1098.351074	3145.658447	2359.517822	61.601242
762.335571	1100.458862	3166.349365	2384.790039	62.168400
762.650940	1102.394653	3207.171631	2425.139160	62.844879
762.966370	1100.329956	3283.697021	2493.104736	63.790222
763.281677	1100.867676	3390.075928	2573.652100	64.335976
763.596863	1098.243652	3507.316162	2660.931885	64.866798
763.911987	1100.415894	3602.295898	2743.372070	65.668869
764.227112	1102.867798	3678.735352	2808.864258	66.229973
764.542236	1103.319458	3740.076416	2861.666504	66.685974
764.857178	1103.685059	3780.877441	2905.263428	67.293571
765.172119	1102.609863	3804.622070	2930.987061	67.667244
765.487061	1099.082397	3818.322754	2944.924072	67.880791
765.801880	1095.899292	3806.385742	2948.128906	68.335693
766.116760	1094.608643	3769.692871	2929.266113	68.583168
766.431458	1094.243042	3686.671875	2880.550537	68.904785
766.746155	1093.124634	3573.044678	2809.143555	69.196548
767.060791	1095.296997	3442.340576	2732.897705	69.772919
767.375427	1094.716309	3328.520264	2658.437012	70.002594
767.689941	1093.232300	3229.862549	2601.784912	70.604286
768.004395	1090.027466	3144.906006	2550.359131	71.066574
768.318848	1087.769165	3074.574463	2504.998779	71.332085
768.633179	1088.134888	3014.631836	2471.145020	71.788857
768.947632	1090.457764	2957.291260	2443.636475	72.485237
769.261841	1091.188965	2908.618408	2416.019775	72.895859
769.576111	1091.877197	2861.257813	2392.016846	73.479927
769.890259	1093.038818	2827.167725	2368.852539	73.570869
770.204285	1094.501221	2789.485596	2352.872070	74.240852
770.518433	1092.630127	2756.814697	2333.041748	74.535698
770.832458	1091.081543	2725.714111	2321.427490	75.267433
771.146362	1090.844849	2697.301758	2305.124268	75.587425
771.460205	1091.619263	2670.524170	2294.435059	76.180382
771.774109	1093.490356	2651.468262	2283.164795	76.360161
772.087952	1094.608765	2632.154053	2276.024170	76.837761
772.401672	1094.888550	2615.657227	2263.506104	76.843872
772.715332	1098.071411	2602.666504	2256.193604	76.972351
773.028992	1098.630737	2589.718506	2250.343506	77.239769
773.342590	1098.049927	2572.082031	2248.257324	78.031364
773.656128	1097.103638	2557.994385	2238.213135	78.110527
773.969604	1099.555664	2543.970947	2232.040039	78.404350
774.283020	1100.200928	2532.851563	2220.898926	78.225494
774.596375	1099.577148	2521.043701	2217.887695	78.673012
774.909729	1100.695557	2507.816162	2211.048340	78.909569
775.223022	1101.900024	2492.523926	2205.154785	79.335236
775.536194	1105.836060	2481.941895	2199.670166	79.487640
775.849304	1105.857544	2466.456055	2195.454590	80.082184
776.162476	1104.674561	2453.142822	2190.077637	80.491554
776.475525	1104.739014	2438.840088	2185.238525	80.990829
776.788513	1105.427246	2430.839111	2177.344971	80.874313
777.101440	1103.857178	2424.859863	2178.076416	81.318474
777.414307	1102.502075	2417.826660	2176.635254	81.662971
777.727173	1100.566406	2414.213379	2174.355225	81.741051
778.039978	1102.781738	2408.384521	2168.913818	81.658226
778.352722	1101.211792	2403.846191	2162.891602	81.502518
778.665405	1098.566284	2402.491455	2161.428955	81.512550
778.977966	1092.823608	2397.759521	2158.310303	81.650497
779.290649	1092.436401	2399.566162	2155.966064	81.363739
779.603149	1092.156860	2396.124756	2154.395996	81.462059
779.915588	1090.328613	2397.006836	2151.600098	81.219040
780.227966	1090.199585	2391.801514	2151.019287	81.501083
780.540405	1090.048950	2385.219971	2149.040771	81.764633
780.852722	1088.307007	2382.596191	2142.373291	81.439781
781.164917	1089.554321	2373.412354	2138.695313	81.717834
781.477173	1089.876953	2365.260742	2137.060547	82.107330
781.789246	1090.737305	2355.926270	2135.318359	82.563248
782.101379	1091.360962	2343.107666	2129.704834	82.951599
782.413452	1092.500977	2335.429199	2124.693359	83.045212
782.725403	1091.683716	2324.244873	2119.939941	83.424355
783.037292	1092.586914	2315.189941	2111.637695	83.350914
783.349182	1094.264648	2301.854980	2103.551025	83.578537
783.661072	1094.049561	2294.843262	2094.818604	83.342293
783.972839	1094.845337	2286.003662	2087.075928	83.299637
784.284546	1096.609009	2271.679443	2086.301514	84.224098
784.596191	1097.211182	2261.699463	2080.386719	84.429832
784.907898	1095.383057	2254.236084	2073.031006	84.363411
785.219421	1096.652100	2247.138428	2064.771729	84.148727
785.530884	1095.189453	2243.331787	2062.879150	84.283081
785.842346	1094.737793	2236.341553	2059.889648	84.543510
786.153748	1096.479858	2227.588135	2058.040039	85.010445
786.465149	1096.845581	2220.232178	2057.825195	85.543091
786.776428	1098.093018	2214.403320	2061.416992	86.295357
787.087646	1100.114746	2210.489014	2067.030273	87.080147
787.398804	1100.028809	2215.650879	2071.848145	87.110085
787.709961	1101.448242	2228.491211	2079.247070	86.757904
788.021057	1103.448486	2243.998535	2096.754639	87.090096
788.332031	1105.255127	2260.581299	2112.907227	87.217979
788.643005	1103.792725	2278.411377	2130.220947	87.383957
788.953918	1105.513306	2290.907715	2139.598633	87.235550
789.264832	1108.137329	2298.671875	2151.277344	87.619469
789.575623	1107.040527	2307.898926	2156.590088	87.399940
789.886353	1104.803589	2315.555664	2159.385986	87.101433
790.197083	1102.480835	2321.470459	2160.655029	86.807480
790.507690	1098.695313	2320.459473	2155.514648	86.499458
790.818359	1099.792236	2312.114258	2150.438721	86.663979
791.128845	1098.394287	2292.391357	2138.071289	87.075340
791.439331	1097.297363	2270.732666	2118.778809	87.050514
791.749756	1095.619629	2247.246338	2099.421631	87.163834
792.060120	1096.092896	2224.662842	2081.419189	87.307510
792.370483	1097.361694	2201.928711	2064.965576	87.600288
792.680786	1093.597778	2184.206055	2044.898560	87.226624
792.990967	1093.619263	2169.795898	2033.370361	87.323128
793.301086	1095.189453	2154.396240	2024.594971	87.745430
793.611267	1093.275269	2141.577393	2012.163330	87.654892
793.921326	1095.254028	2130.070557	2003.387817	87.757950
794.231323	1095.834839	2122.757568	1997.838745	87.835617
794.541260	1097.576782	2120.929443	1991.386597	87.341331
794.851074	1098.308105	2121.144287	1990.913574	87.267685
795.161011	1099.297607	2123.252197	1994.634399	87.439110
795.470764	1099.512573	2126.284912	2000.161987	87.716560
795.780518	1099.598755	2132.049072	2006.205566	87.811180
796.090149	1102.050659	2141.147217	2016.680054	88.021599
796.399780	1099.663208	2146.158447	2024.573486	88.381699
796.709412	1098.458618	2155.600586	2031.327026	88.244385
797.018860	1099.512573	2160.504395	2037.650513	88.420845
797.328308	1100.222412	2166.117920	2042.726563	88.423691
797.637756	1098.953369	2165.515625	2044.662231	88.668884
797.947205	1098.738403	2166.655518	2046.877441	88.783951
798.256470	1097.942505	2161.364502	2045.371826	89.092506
798.565674	1098.243652	2157.278076	2037.693237	88.708122
798.874817	1099.125488	2148.309082	2026.014526	88.343834
799.183960	1098.501831	2141.921387	2017.540527	88.079498
799.493103	1098.480225	2131.447021	2003.861450	87.648628
799.802124	1101.749512	2121.531494	1988.913330	86.995438
800.111084	1102.265503	2105.830811	1979.062500	87.368202
800.419983	1103.319458	2098.023438	1970.717529	87.201630
800.728821	1102.846313	2086.774658	1963.963989	87.518333
801.037659	1104.997070	2080.709473	1952.500000	86.859909
801.346436	1102.781738	2071.482666	1944.692627	86.911331
801.655151	1102.953979	2065.804443	1935.379639	86.454300
801.963745	1103.642090	2057.674316	1932.368408	86.865654
802.272400	1102.201050	2050.490479	1927.572144	87.037888
802.580933	1102.201050	2039.693359	1921.098389	87.349770
802.889404	1100.630981	2028.745972	1916.087158	87.861549
803.197815	1099.082520	2021.282837	1912.409058	88.194130
803.506226	1099.297607	2016.185425	1905.010254	87.874725
803.814575	1100.566528	2007.926147	1897.073853	87.782982
804.122864	1101.190308	2004.979614	1891.933472	87.491982
804.431030	1100.007324	2001.473877	1891.954956	87.851028
804.739197	1102.201172	2001.990112	1892.471069	87.828362
805.047241	1102.416138	2005.754028	1896.364136	87.890480
805.355408	1101.426758	2007.345703	1896.643677	87.780144
805.663391	1099.146973	2007.990601	1897.202759	87.810020
805.971313	1099.168457	2010.550049	1898.772705	87.735397
806.279175	1098.286621	2015.131226	1902.730347	87.740463
806.587036	1097.641479	2015.045410	1906.623169	88.181625
806.894836	1098.566284	2019.046021	1910.172241	88.172058
807.202576	1098.351074	2019.497314	1913.548950	88.498207
807.510193	1096.888550	2016.873535	1914.409302	88.862404
807.817810	1095.210938	2012.937622	1910.925049	88.884209
808.125427	1093.791504	2003.044067	1906.881714	89.424019
808.432922	1094.114136	1993.773804	1896.235107	89.158264
808.740295	1094.587280	1982.503540	1887.653198	89.317650
809.047729	1097.576904	1975.276978	1878.426270	88.965401
809.355103	1097.039185	1967.017944	1867.973389	88.615288
809.662415	1098.329590	1958.005981	1855.756958	88.106102
809.969604	1100.652466	1948.585449	1844.701660	87.748589
810.276794	1098.867310	1934.863403	1833.216309	87.841202
810.583923	1098.996460	1925.744141	1823.516357	87.634949
810.890991	1101.254761	1915.011597	1813.859253	87.569710
811.197998	1102.093628	1908.214844	1805.771973	87.291878
811.505005	1103.018433	1904.429321	1798.739014	86.811974
811.811829	1101.706421	1894.557129	1793.620239	87.269119
812.118713	1101.899902	1888.190918	1788.737793	87.351616
812.425537	1099.835205	1879.695313	1785.855591	87.967110
812.732300	1098.222168	1872.963257	1782.500488	88.323486
813.038940	1097.684448	1866.187988	1777.553833	88.466660
813.345581	1098.845825	1863.585571	1771.617554	87.973946
813.652100	1099.060913	1860.918823	1770.671143	88.154266
813.958740	1097.426270	1856.810913	1767.057739	88.180801
814.265137	1096.953125	1852.681152	1763.121582	88.149231
814.571533	1097.921021	1844.830811	1761.078491	88.786819
814.877930	1098.329590	1838.356934	1758.217651	89.170769
815.184265	1099.039429	1836.184448	1757.959717	89.388145
815.490540	1097.770386	1834.356323	1753.184814	88.980034
815.796692	1097.254150	1834.635864	1752.432129	88.851944
816.102844	1099.211426	1837.539551	1752.195435	88.440895
816.408936	1100.523438	1839.324341	1754.496826	88.518219
816.714966	1099.211426	1841.475098	1756.884399	88.603683
817.020935	1100.673950	1842.270996	1760.089111	88.918259
817.326843	1103.964722	1845.712402	1763.573364	88.926285
817.632690	1102.158081	1852.294067	1768.326538	88.806358
817.938477	1101.835449	1856.961304	1772.112061	88.763565
818.244263	1101.792480	1867.629272	1778.887085	88.412392
818.549988	1100.760010	1873.328857	1784.285645	88.474396
818.855652	1103.470093	1885.846558	1795.964478	88.511658
819.161194	1103.706665	1902.515503	1814.052734	88.925667
819.466797	1103.771118	1925.163330	1837.216797	89.292992
819.772278	1103.255005	1952.435425	1865.779419	89.795334
820.077698	1102.738770	1988.138794	1900.966675	90.154495
820.383057	1101.813843	2028.810669	1938.240356	90.229706
820.688354	1098.673706	2080.752441	1986.332153	90.385674
820.993652	1101.663330	2157.772705	2057.868164	90.540321
821.298828	1101.684814	2304.586670	2195.497803	90.931190
821.604004	1100.630981	2572.469482	2443.550049	91.240929
821.909058	1099.835205	2981.638184	2814.606934	91.123871
822.214111	1096.953125	3465.762695	3257.349854	91.201790
822.519165	1097.985474	3929.153320	3676.541504	91.077469
822.824036	1096.824097	4320.793457	4030.068848	90.982399
823.128906	1095.361450	4639.757813	4321.115723	91.009979
823.433716	1096.178833	4895.488281	4553.424805	90.996696
823.738525	1094.673340	5104.998047	4743.813965	90.993645
824.043213	1094.049683	5264.351074	4888.541016	90.988419
824.347900	1090.887817	5364.987793	4976.616699	90.913383
824.652466	1090.414551	5375.397949	4981.370605	90.804459
824.957031	1093.103149	5241.897461	4856.107422	90.701157
825.261536	1093.318237	4947.731445	4594.117676	90.825745
825.565979	1093.167725	4563.447266	4241.170410	90.713234
825.870300	1095.705688	4180.711426	3893.923340	90.703804
826.174622	1097.125122	3872.071045	3615.802979	90.764931
826.478821	1098.157593	3660.776367	3418.208740	90.534393
826.783142	1096.867188	3533.771240	3303.807617	90.563286
827.087280	1097.469482	3464.859375	3235.218018	90.299805
827.391357	1099.361938	3414.552246	3189.126465	90.263184
827.695435	1101.211670	3371.278320	3150.089111	90.256271
827.999451	1102.416138	3325.917725	3110.449463	90.309509
828.303406	1102.179565	3276.857910	3068.724121	90.429222
828.607239	1101.964478	3237.540771	3026.977295	90.140205
828.911011	1102.459106	3190.309326	2987.079834	90.266090
829.214844	1099.942749	3143.464844	2944.085449	90.243347
829.518616	1098.609375	3076.682617	2886.680420	90.394585
829.822205	1098.781372	2972.583496	2793.572021	90.446617
830.125793	1098.673706	2829.640869	2663.512695	90.402580
830.429382	1099.168457	2664.308838	2516.483398	90.555130
830.732849	1098.824341	2509.278564	2378.208496	90.707245
831.036316	1096.824097	2377.025635	2259.290771	90.803413
831.339661	1096.651978	2268.861816	2158.267334	90.565300
831.642944	1093.748413	2178.850830	2072.966553	90.242004
831.946228	1096.286377	2102.174561	2002.162109	90.057297
832.249512	1098.222046	2045.307129	1949.101563	89.841927
832.552673	1099.082275	2010.528564	1916.065308	89.635895
832.855774	1102.932373	1996.849487	1902.536621	89.449486
833.158813	1104.997192	2013.561401	1920.001465	89.702438
833.461731	1103.921753	2059.653076	1964.609009	90.055359
833.764771	1103.900269	2119.768066	2022.143066	90.389992
834.067627	1103.104492	2185.711914	2080.903076	90.318848
834.370422	1102.975464	2241.912354	2136.845459	90.775002
834.673157	1101.663452	2288.176025	2180.893799	90.958191
834.975891	1101.900024	2330.245850	2220.253662	91.045502
835.278564	1098.308105	2362.443115	2248.924072	91.020020
835.581177	1096.910156	2382.402588	2267.851074	91.088898
835.883728	1095.985229	2384.703857	2269.894287	91.091187
836.186218	1092.802002	2366.636963	2254.580566	91.203224
836.488647	1090.307129	2323.083252	2214.855225	91.220787
836.791077	1092.092285	2254.881348	2148.696289	90.868073
837.093384	1090.586792	2176.441650	2071.224365	90.310188
837.395630	1090.737305	2090.258789	1996.139771	90.583595
837.697815	1093.017090	2016.034790	1924.130859	90.043098
838.000061	1094.286255	1949.897705	1861.155151	89.628174
838.302124	1096.006714	1888.363281	1804.481689	89.413658
838.604126	1098.996338	1832.979980	1753.722656	89.201759
838.906128	1098.566284	1788.243042	1710.104370	88.670250
839.208069	1100.910645	1753.615112	1681.433960	88.941223
839.510010	1100.050293	1732.945801	1658.162476	88.183937
839.811829	1101.061157	1722.105835	1644.913574	87.570580
840.113586	1101.985962	1716.105103	1638.418091	87.349846
840.415222	1102.351685	1711.566895	1635.062622	87.442162
840.716919	1102.050537	1712.921875	1629.556763	86.353081
841.018555	1100.630981	1710.857056	1627.190918	86.289322
841.320068	1100.523560	1709.136353	1626.653198	86.447350
841.621521	1097.641357	1705.630737	1623.125854	86.429878
841.922974	1097.512329	1703.781128	1624.394897	86.905769
842.224365	1096.221802	1698.167480	1622.373047	87.408424
842.525635	1095.727173	1688.209351	1610.995239	86.967690
842.826965	1097.619873	1671.691040	1597.402222	87.059303
843.128174	1098.673706	1646.139526	1579.356934	87.801506
843.429260	1097.447754	1618.781250	1557.870605	88.316376
843.730408	1101.663208	1595.208496	1535.545044	87.911247
844.031433	1103.362427	1574.797241	1517.220215	87.786850
844.332397	1105.384277	1555.224976	1500.121460	87.750435
844.633362	1105.083130	1538.384277	1484.119385	87.476402
844.934204	1106.029419	1523.844604	1470.031616	87.120384
845.235046	1107.234009	1509.713989	1456.051392	86.667015
845.535828	1108.266357	1497.755371	1444.910278	86.432198
845.836487	1108.546021	1485.108521	1435.425293	86.806114
846.137146	1107.642700	1474.763428	1425.875732	86.683479
846.437744	1105.556396	1465.708496	1415.293701	86.001808
846.738281	1105.147583	1457.642944	1406.755005	85.563515
847.038757	1102.179565	1449.856934	1399.915527	85.635704
847.339172	1099.749146	1439.275024	1394.043823	86.678131
847.639526	1098.329590	1433.338867	1386.946167	86.151817
847.939819	1097.748901	1427.101563	1381.483032	86.149033
848.240112	1097.512207	1421.896606	1380.386108	87.203300
848.540283	1096.479980	1416.369141	1375.697266	87.285637
848.840393	1097.533813	1413.573120	1369.847046	86.164352
849.140564	1094.888428	1410.583374	1365.782104	85.808685
849.440552	1096.888672	1405.034302	1364.427124	86.822083
849.740540	1097.082153	1402.818970	1363.072144	86.999657
850.040405	1098.910400	1400.259644	1360.061035	86.660461
850.340210	1097.985596	1397.183838	1356.168091	86.291451
850.640137	1098.695435	1395.613770	1350.576050	84.831612
850.939819	1098.652344	1392.194092	1347.866089	84.898911
851.239502	1096.910156	1388.193481	1343.757935	84.744904
851.539185	1096.178955	1387.333130	1337.520630	82.891365
851.838745	1095.748779	1385.676880	1335.498901	82.692955
852.138245	1094.458130	1379.504272	1333.907104	84.003586
852.437744	1095.920776	1376.944824	1333.089844	84.394585
852.737122	1094.608643	1377.912598	1329.820679	83.024620
853.036499	1095.641113	1375.912354	1325.820190	82.127258
853.335815	1094.802246	1372.449585	1324.809448	82.841492
853.635010	1095.963623	1369.954712	1325.648193	83.829208
853.934204	1095.899170	1371.395630	1328.057007	84.268898
854.233276	1095.985229	1372.707886	1329.132324	84.252983
854.532410	1095.791748	1372.428223	1328.852783	84.248123
854.831482	1096.157349	1368.943848	1328.702271	85.247955
855.130371	1094.974487	1366.298340	1324.981323	84.772064
855.429260	1096.049927	1364.212158	1323.712402	84.897293
855.728088	1094.479736	1360.727783	1321.970215	85.443062
856.026855	1094.221558	1355.888550	1321.497192	86.856819
856.325623	1094.264526	1354.361450	1321.862793	87.505173
856.624329	1094.737793	1354.124878	1321.002441	87.230499
856.922913	1095.124878	1352.404175	1316.743774	86.139420
857.221436	1097.426270	1348.661743	1313.560669	86.028618
857.519958	1097.727417	1345.715088	1312.635742	86.660889
857.818420	1097.942383	1343.327759	1312.549683	87.457253
858.116821	1099.856567	1341.951172	1310.721436	87.100197
858.415161	1102.179565	1343.241699	1312.485229	87.241272
858.713379	1102.738770	1342.553589	1312.700195	87.551483
859.011658	1107.018799	1343.542847	1311.732300	86.550819
859.309814	1108.115723	1343.306274	1310.334473	85.980812
859.607910	1107.470581	1341.456543	1309.624634	86.395805
859.905945	1108.868652	1340.897339	1308.312622	85.956596
860.203979	1107.707153	1340.209106	1308.699951	86.447792
860.501953	1107.879272	1338.531494	1307.817993	86.684067
860.799744	1107.707153	1335.713989	1302.957153	85.633400
861.097656	1109.642822	1335.950439	1299.795410	84.023949
861.395325	1109.513794	1336.337646	1297.451172	82.856094
861.693115	1108.416870	1335.090088	1292.568848	81.241173
861.990784	1108.804199	1335.434326	1290.310425	80.089188
862.288330	1107.384521	1333.261963	1287.621948	79.794342
862.585815	1104.739136	1334.401855	1284.933350	78.460365
862.883301	1106.244629	1334.294434	1283.470825	77.713814
863.180786	1106.072632	1332.702881	1283.449341	78.267006
863.478149	1107.018799	1330.745605	1283.879517	79.052094
863.775452	1105.319824	1330.272339	1283.793457	79.338356
864.072693	1108.072876	1331.455200	1284.782837	79.106506
864.369873	1109.750366	1331.390747	1286.395996	79.699211
864.667114	1108.997681	1328.680664	1288.267212	81.603737
864.964111	1108.223511	1327.970947	1292.977417	84.075569
865.261169	1106.653198	1327.347168	1292.095581	84.026939
865.558105	1105.190796	1328.938843	1292.762329	83.831581
865.855042	1105.362793	1327.261230	1291.966553	84.094223
866.151917	1103.878662	1326.099731	1291.106079	84.252777
866.448730	1100.652466	1325.863159	1290.331909	84.223106
866.745422	1102.373047	1327.454590	1288.202637	82.561005
867.042114	1100.781616	1327.583862	1285.836792	81.593185
867.338806	1096.609009	1324.422241	1288.095215	84.054031
867.635376	1094.673218	1321.066895	1286.826172	84.875580
867.931824	1096.458496	1322.765991	1283.729004	82.750465
868.228271	1096.781128	1320.077515	1280.696289	82.363701
868.524658	1096.307861	1319.561401	1281.212524	82.822723
868.821045	1098.824341	1318.120361	1278.696045	82.022331
869.117310	1098.458618	1315.474731	1280.846924	84.043671
869.413574	1096.888550	1314.958740	1278.610107	83.331680
869.709717	1097.856567	1312.205566	1278.351929	84.206299
870.005859	1095.038940	1308.957886	1280.244629	86.577507
870.301880	1096.437012	1308.463257	1281.298706	87.188118
870.597900	1095.490601	1308.334106	1277.986328	85.741737
870.893860	1095.813232	1311.990479	1276.394653	83.533966
871.189636	1092.371948	1311.753906	1280.524292	85.764732
871.485535	1092.845093	1311.108643	1280.373535	85.918350
871.781311	1092.006348	1310.269897	1281.513550	86.824944
872.077026	1090.264160	1310.700073	1285.320557	88.486671
872.372681	1091.963379	1311.818481	1282.674927	86.744202
872.668274	1093.210815	1312.807861	1282.567505	86.229164
872.963806	1092.715942	1314.592896	1281.083496	84.897308
873.259338	1093.275269	1318.679565	1280.352173	82.996155
873.554688	1093.812988	1319.346191	1280.373657	82.719826
873.850098	1096.695190	1320.507813	1281.427612	82.538879
874.145447	1096.501465	1318.335449	1282.868652	84.012009
874.440674	1100.265503	1317.582520	1280.975952	83.155220
874.735840	1099.362183	1320.335693	1281.599731	82.470314
875.031006	1101.577393	1323.110107	1281.169556	81.068008
875.326050	1100.437378	1323.970581	1278.502563	79.659393
875.621094	1101.190186	1325.389893	1279.448853	79.508873
875.916077	1103.599121	1325.583618	1280.416748	79.653145
876.210999	1106.502686	1326.917114	1279.147705	78.327461
876.505798	1107.363037	1322.895142	1278.803589	79.542931
876.800598	1106.997192	1321.776855	1279.663940	80.392502
877.095337	1104.007690	1322.077881	1281.104980	81.211143
877.390015	1106.201538	1323.088745	1278.394897	79.393044
877.684692	1105.728516	1322.335938	1278.007813	79.535271
877.979187	1107.470581	1319.884033	1279.814453	81.136047
878.273804	1105.534790	1319.862549	1279.341309	81.093796
878.568237	1106.136963	1322.701660	1282.847168	81.596954
878.862610	1103.061401	1325.884766	1287.041260	82.567581
879.156921	1100.889160	1330.896118	1292.955933	83.504768
879.451172	1098.071533	1337.219604	1300.698853	84.728813
879.745422	1098.759888	1348.382202	1310.420532	84.792358
880.039612	1097.555298	1361.480591	1322.895142	85.380165
880.333679	1098.587769	1381.999146	1341.994263	85.884521
880.627686	1097.017578	1415.164673	1373.933716	87.040283
880.921692	1096.221802	1469.020752	1424.800171	88.138222
881.215698	1096.350830	1556.386353	1498.852417	87.493591
881.509460	1099.362183	1671.239380	1606.263672	88.638168
881.803345	1099.469604	1812.289063	1735.440918	89.219131
882.097046	1101.512817	1959.898804	1868.532715	89.356064
882.390808	1102.115112	2098.131104	1993.817139	89.526878
882.684448	1103.685059	2225.781250	2111.788574	89.841095
882.978027	1101.082642	2336.439941	2213.327881	90.034294
883.271545	1102.566772	2432.086426	2300.521729	90.104347
883.565002	1103.147583	2508.117432	2367.196289	89.969810
883.858398	1102.588379	2560.855225	2414.428223	89.958832
884.151733	1101.211670	2581.567383	2430.107666	89.768692
884.445068	1100.846069	2557.413818	2409.374023	89.836395
884.738281	1099.233032	2489.964600	2345.194092	89.590332
885.031433	1099.168335	2383.198486	2246.837646	89.380249
885.324585	1100.738403	2262.624268	2138.394287	89.307899
885.617676	1098.738281	2142.071777	2028.681641	89.131935
885.910645	1097.576904	2026.401489	1920.797363	88.630348
886.203552	1099.168457	1921.829590	1823.559448	88.054604
886.496521	1099.942749	1824.979004	1733.268677	87.350929
886.789368	1100.673950	1740.645996	1655.989868	86.771904
887.082153	1102.760254	1661.023071	1586.841675	86.712105
887.374817	1103.728149	1595.316040	1525.887939	85.876770
887.667480	1103.577637	1537.825073	1476.699097	85.923698
887.960083	1104.222900	1492.916382	1436.005859	85.358505
888.252625	1103.642212	1455.427734	1404.582520	85.546532
888.545166	1103.190552	1428.241699	1379.310547	84.946632
888.837524	1105.599487	1404.969849	1359.415771	84.783371
889.129883	1107.255493	1386.171875	1343.628784	84.747009
889.422241	1106.696411	1371.417358	1330.121826	84.400352
889.714478	1093.511841	1322.292847	1308.334229	93.898697
890.006714	1107.707153	1357.544556	1318.980591	84.564377
890.298767	1110.072998	1317.324585	1289.407104	86.529663
890.590881	1113.858398	1319.453735	1284.911865	83.199097
890.882935	1094.694824	1328.207642	1281.362915	79.939117
>>>>>End Processed Spectral Data<<<<<
