Jaz Data File
++++++++++++++++++++++++++++++++++++
Date: Mon Apr 22 19:26:36 2019
User: jaz
Dark Spectrum Present: Yes
Reference Spectrum Present: Yes
Processed Spectrum Present: Yes
Spectrometers: JAZA2928
Integration Time (usec): 40000 (JAZA2928)
Spectra Averaged: 10 (JAZA2928)
Boxcar Smoothing: 5 (JAZA2928)
Correct for Electrical Dark: No (JAZA2928)
Strobe/Lamp Enabled: Yes (JAZA2928)
Correct for Detector Non-linearity: No (JAZA2928)
Correct for Stray Light: No (JAZA2928)
Number of Pixels in Processed Spectrum: 2048
>>>>>Begin Processed Spectral Data<<<<<
W	D	R	S	P
190.104553	0.000000	0.000000	0.000000	0.000000
190.488098	0.000000	0.000000	0.000000	0.000000
190.871613	1077.423828	1084.994751	1051.162476	-346.871216
191.255096	1080.499390	1079.079956	1060.152954	1433.419312
191.638535	0.000000	0.000000	0.000000	0.000000
192.021942	903.294739	908.865295	900.154480	-56.372440
192.405334	1004.317993	1010.039124	1001.478882	-49.625008
192.788696	1107.599609	1112.288330	1102.889282	-100.460815
193.172012	1111.471069	1116.052246	1109.449341	-44.131207
193.555313	1116.138306	1118.654663	1116.869507	29.057922
193.938568	1122.375488	1122.956299	1119.235474	-540.626343
194.321793	1125.386597	1126.505127	1121.493774	-348.030121
194.704987	1126.655640	1129.473267	1124.913574	-61.827396
195.088150	1127.429810	1129.387207	1123.967285	-176.894287
195.471298	1126.505249	1131.710083	1126.526611	0.410432
195.854401	1127.494629	1132.054199	1125.816895	-36.795887
196.237457	1129.064575	1128.957031	1125.279175	3519.863770
196.620499	1129.043091	1130.441040	1126.741699	-164.626266
197.003494	1127.171875	1130.140137	1126.182495	-33.331963
197.386475	1126.999878	1131.129395	1126.118042	-21.354460
197.769424	1126.419067	1132.441406	1123.408081	-49.996960
198.152344	1123.365112	1134.527832	1122.848755	-4.625731
198.535217	1120.934570	1135.947266	1122.332764	9.313407
198.918076	1121.149658	1138.098022	1120.267822	-5.203074
199.300903	1121.838013	1139.668091	1121.192871	-3.618277
199.683670	1123.838257	1144.421387	1121.601440	-10.867231
200.066422	1123.730591	1145.023560	1122.139160	-7.473973
200.449142	1121.967041	1147.884277	1121.923950	-0.166263
200.831848	1122.719849	1149.174683	1123.020874	1.137884
201.214508	1123.537109	1149.002686	1123.429565	-0.422311
201.597137	1122.891846	1150.120972	1125.472778	9.478573
201.979736	1122.612183	1152.874146	1125.236206	8.671028
202.362274	1122.633789	1149.088623	1126.526611	14.714975
202.744827	1121.257202	1147.625977	1125.515747	16.149954
203.127319	1119.171021	1146.055908	1128.612915	35.119709
203.509796	1116.525513	1142.786621	1128.376465	45.127388
203.892227	1113.406860	1136.872070	1124.547974	47.479282
204.274643	1110.567749	1137.151489	1126.311646	59.223782
204.657013	1110.804321	1134.850342	1126.483643	65.205475
205.039352	1108.223389	1132.441406	1121.106567	53.196671
205.421661	1104.932617	1135.796753	1121.300171	53.030979
205.803940	1103.964722	1135.516968	1116.675903	40.286140
206.186188	1103.771118	1133.344727	1117.256714	45.600101
206.568405	1101.921387	1134.248169	1114.396118	38.589462
206.950592	1103.297974	1136.119263	1115.148926	36.107517
207.332748	1101.340698	1133.882446	1109.944092	26.438019
207.714859	1099.964233	1136.269775	1110.589355	29.265841
208.096939	1099.598511	1137.732422	1112.976685	35.082092
208.478989	1098.695190	1137.280762	1109.793579	28.763054
208.861008	1098.931763	1138.291626	1109.449341	26.721582
209.243011	1099.318848	1140.765137	1112.524902	31.863056
209.624969	1098.652222	1139.410034	1111.879639	32.453697
210.006897	1098.480103	1140.377808	1112.503418	33.470367
210.388794	1097.469238	1141.345703	1111.234375	31.372484
210.770645	1097.426270	1141.603882	1111.836792	32.619514
211.152481	1097.146606	1140.549927	1112.051880	34.341320
211.534286	1097.404785	1143.152344	1112.223755	32.392918
211.916061	1097.490723	1141.238159	1110.288208	29.253109
212.297791	1097.985474	1142.119995	1109.578369	26.267183
212.679489	1097.125122	1143.195435	1110.911987	29.925703
213.061157	1093.662354	1142.313599	1109.191284	31.918877
213.442795	1093.812988	1142.786743	1108.524536	30.039658
213.824402	1094.071167	1142.829712	1109.212769	31.054253
214.205963	1094.823730	1141.496216	1110.030151	32.581123
214.587524	1093.705444	1141.195190	1110.503174	35.371277
214.969025	1094.952881	1142.937378	1110.008545	31.376101
215.350510	1093.554932	1145.948486	1111.664673	34.564827
215.731949	1092.823730	1144.572021	1112.933472	38.860687
216.113358	1092.221558	1147.841309	1114.482056	40.022648
216.494736	1093.361328	1147.239014	1115.600708	41.277534
216.876083	1093.124878	1145.324707	1113.707886	39.431179
217.257401	1094.823975	1146.765747	1116.138428	41.035282
217.638702	1094.910034	1149.389771	1117.880493	42.163307
218.019943	1095.791748	1151.841553	1119.300049	41.941807
218.401169	1094.006592	1152.142700	1120.246460	45.135235
218.782349	1094.372070	1154.788208	1121.171265	44.357674
219.163498	1094.436646	1158.272583	1119.644043	39.487785
219.544632	1098.286621	1158.659668	1114.998413	27.680882
219.925705	1102.416138	1162.423584	1113.944458	19.211483
220.306778	1103.104370	1163.929199	1113.514404	17.114777
220.687805	1101.082520	1168.661011	1114.525269	19.892052
221.068802	1101.770996	1176.640503	1117.364258	20.827253
221.449738	1101.985840	1182.598145	1117.385742	19.103662
221.830673	1099.340454	1186.620117	1118.009521	21.389940
222.211563	1098.394043	1191.932617	1116.654419	19.521761
222.592438	1098.759766	1200.084106	1118.289185	19.274164
222.973267	1099.060913	1206.730225	1119.558105	19.037172
223.354065	1097.727417	1211.655518	1123.623047	22.729801
223.734848	1093.791382	1217.828369	1128.376343	27.882780
224.115555	1090.436157	1228.302734	1132.850098	30.764484
224.496262	1092.694458	1238.497559	1135.280518	29.207924
224.876923	1092.178223	1246.498535	1136.829224	28.933975
225.257568	1091.016846	1255.639526	1138.786377	29.017588
225.638168	1088.113281	1265.554688	1140.937134	29.769745
226.018723	1090.479248	1277.147583	1144.980591	29.196886
226.399277	1092.328735	1291.923462	1151.906250	29.849243
226.779785	1094.759277	1309.861206	1157.261719	29.057127
227.160263	1093.726929	1333.046875	1162.724731	28.830778
227.540695	1093.103149	1363.351685	1173.027100	29.574240
227.921112	1091.984741	1408.217529	1187.265381	30.129906
228.301483	1092.501099	1466.525879	1203.675903	29.723915
228.681824	1092.006348	1543.460083	1224.022583	29.242474
229.062134	1095.339966	1631.212891	1246.304932	28.171785
229.442413	1095.404419	1713.438232	1271.275879	28.456608
229.822647	1099.469604	1782.349976	1291.428833	28.110228
230.202881	1100.846069	1832.011841	1306.828613	28.171799
230.583054	1100.674072	1871.651245	1316.851440	28.039400
230.963196	1098.372681	1904.106934	1325.131958	28.143185
231.343292	1097.576782	1930.819946	1332.659790	28.213015
231.723404	1097.146606	1946.348755	1335.240723	28.037390
232.103439	1098.372681	1940.670654	1330.960571	27.613493
232.483459	1098.630737	1913.054321	1323.712402	27.636929
232.863434	1096.802612	1867.650757	1311.560303	27.859922
233.243393	1091.662109	1814.934814	1297.709106	28.488148
233.623306	1092.909668	1767.294434	1280.481201	27.813726
234.003174	1092.242920	1737.763672	1272.308105	27.894562
234.383041	1089.382324	1724.880371	1265.403931	27.698214
234.762848	1090.930786	1717.675293	1260.973389	27.131088
235.142639	1091.855591	1711.932495	1259.876465	27.096781
235.522385	1094.135498	1708.491089	1260.048706	27.006056
235.902115	1095.834839	1710.212036	1258.650635	26.500950
236.281799	1095.641113	1716.384766	1261.080933	26.651875
236.661438	1096.178833	1729.009888	1262.350098	26.258392
237.041077	1095.576660	1740.946899	1264.952515	26.244757
237.420654	1098.458618	1747.033569	1267.597900	26.078602
237.800217	1097.963989	1755.550659	1271.361816	26.368816
238.179733	1098.351074	1761.530029	1272.050171	26.191889
238.559219	1100.372925	1769.509644	1273.362183	25.852602
238.938690	1098.265137	1782.220703	1275.233276	25.874216
239.318100	1096.630493	1800.158325	1277.857300	25.759722
239.697510	1097.017578	1821.687988	1281.298584	25.429630
240.076859	1097.168091	1847.260986	1286.955200	25.301813
240.456177	1098.178955	1891.976440	1295.751953	24.889597
240.835464	1096.651855	1948.263184	1309.517090	24.995584
241.214722	1097.275757	2024.745728	1327.175171	24.787802
241.593948	1097.963989	2132.092285	1350.769409	24.446234
241.973129	1097.856567	2259.333740	1378.945068	24.200949
242.352295	1097.297363	2406.750000	1412.992310	24.108925
242.731415	1097.856323	2553.327148	1444.523071	23.818186
243.110519	1095.877686	2674.417480	1471.666260	23.806087
243.489578	1095.877686	2769.440186	1492.228027	23.683031
243.868607	1096.049805	2835.943115	1508.724609	23.718397
244.247604	1097.684448	2886.035156	1520.166870	23.624138
244.626541	1098.910278	2917.953125	1528.210938	23.600361
245.005493	1099.792114	2945.719727	1533.738647	23.508318
245.384369	1100.114868	2970.948975	1538.642456	23.440218
245.763229	1100.609497	2998.909180	1544.234375	23.369591
246.142059	1102.760254	3052.937500	1554.214111	23.149376
246.520859	1102.351685	3154.261475	1576.109375	23.088623
246.899612	1100.889038	3308.366943	1610.156372	23.070097
247.278336	1101.942993	3494.518799	1651.086304	22.951973
247.657043	1102.394653	3664.540039	1689.779297	22.925499
248.035690	1101.405273	3803.309570	1720.815552	22.924953
248.414322	1100.867676	3921.002197	1745.291504	22.850819
248.792908	1099.297607	4008.367432	1766.541382	22.936670
249.171478	1099.835205	4061.642822	1776.671753	22.852144
249.550003	1101.104126	4068.827148	1778.112793	22.812393
249.928482	1100.588013	4035.661621	1771.316284	22.852179
250.306961	1099.620117	3942.724854	1752.324585	22.957455
250.685364	1099.362061	3780.747803	1712.706909	22.874174
251.063782	1100.652466	3577.324951	1667.862549	22.902103
251.442123	1101.168701	3379.536865	1625.814331	23.027254
251.820450	1102.416138	3241.261963	1594.928833	23.027033
252.198761	1102.201050	3168.177490	1580.647339	23.158360
252.576996	1101.276245	3111.740479	1570.000854	23.314247
252.955246	1101.921509	3063.153809	1556.429321	23.174604
253.333420	1101.039673	3017.792969	1546.643066	23.247822
253.711578	1100.437500	2990.306152	1538.900391	23.200706
254.089706	1100.308472	2965.872803	1532.770630	23.181305
254.467804	1098.716675	2948.537354	1528.791504	23.249542
254.845871	1099.856567	2933.202148	1526.425659	23.267250
255.223877	1098.996338	2907.005371	1519.026978	23.231667
255.601898	1100.480347	2870.334229	1511.348511	23.214808
255.979828	1098.265137	2818.026367	1500.659058	23.398243
256.357727	1098.630737	2763.826172	1485.840088	23.253088
256.735657	1098.480225	2741.457764	1481.495483	23.312263
257.113525	1098.071411	2758.492432	1484.076416	23.247417
257.491333	1098.480347	2812.197754	1497.002686	23.254847
257.869110	1097.835083	2891.799072	1517.671875	23.402744
258.246887	1097.684448	3007.146729	1543.503052	23.347860
258.624573	1097.232788	3174.092285	1580.647339	23.276230
259.002289	1097.275757	3402.142090	1629.685669	23.099384
259.379944	1098.566284	3704.265625	1697.435913	22.983068
259.757538	1098.415649	4068.052490	1775.574585	22.802753
260.135162	1099.318970	4428.032715	1850.379639	22.563089
260.512665	1100.760010	4715.939453	1911.978638	22.439236
260.890228	1099.792114	4904.715332	1951.424561	22.382381
261.267700	1101.147095	5016.622070	1977.255859	22.375542
261.645142	1101.942871	5083.039063	1989.321777	22.289814
262.022552	1103.211914	5120.677734	1993.623413	22.163511
262.399994	1102.717285	5125.904297	1990.224976	22.059816
262.777313	1103.857178	5080.715820	1976.481201	21.942545
263.154602	1104.911011	4961.216309	1951.295288	21.948063
263.531921	1102.824707	4760.159180	1904.493774	21.919491
263.909149	1102.459106	4480.791504	1842.937866	21.918468
264.286377	1101.491333	4192.583984	1779.854980	21.945755
264.663574	1099.878174	3972.277100	1729.977783	21.936354
265.040710	1101.921509	3845.767090	1701.479614	21.851013
265.417816	1099.168457	3795.782227	1687.499512	21.817402
265.794891	1099.340576	3797.803955	1688.123169	21.819180
266.171936	1099.104004	3841.508057	1694.360474	21.705645
266.548950	1099.921265	3899.708740	1708.792236	21.747042
266.925934	1101.383789	3954.425049	1720.255981	21.691666
267.302887	1100.329834	4020.368896	1732.085571	21.635181
267.679810	1102.308594	4091.776367	1748.453247	21.614037
268.056671	1102.652710	4176.216797	1764.627075	21.537680
268.433502	1101.749512	4266.658203	1782.220825	21.500504
268.810333	1101.684814	4350.517578	1799.771484	21.487307
269.187073	1099.039429	4426.677734	1815.622925	21.534298
269.563843	1101.362305	4488.276855	1829.624512	21.502232
269.940521	1100.588013	4541.895996	1838.571899	21.444866
270.317200	1099.899780	4605.710449	1852.035645	21.453979
270.693848	1099.146973	4713.035645	1873.586792	21.429543
271.070435	1097.705933	4884.304199	1907.698730	21.391043
271.447021	1095.856323	5082.371582	1945.639038	21.316431
271.823547	1093.920532	5251.705078	1977.083862	21.241199
272.200043	1092.931152	5382.043457	2000.699585	21.164482
272.576538	1096.501465	5496.100098	2023.584106	21.071981
272.952972	1096.630493	5606.415527	2047.522583	21.085087
273.329346	1099.641602	5698.835449	2064.385010	20.976358
273.705688	1097.490723	5766.155762	2076.622803	20.972422
274.082062	1094.221558	5809.837891	2085.010986	21.010817
274.458344	1094.049438	5806.568848	2083.570068	20.997698
274.834595	1093.060059	5748.755371	2071.869629	21.023918
275.210846	1093.748413	5652.141113	2050.340088	20.985285
275.587006	1095.361572	5538.041016	2028.853638	21.011915
275.963165	1096.135864	5473.688965	2012.937622	20.943247
276.339294	1095.920898	5444.265625	2009.603882	21.012201
276.715393	1094.329224	5440.265137	2008.162964	21.027317
277.091461	1093.942017	5437.361816	2002.656616	20.921638
277.467438	1092.931152	5444.867676	2002.463379	20.899483
277.843445	1094.372192	5460.289551	2003.689331	20.827629
278.219452	1097.361816	5481.604004	2007.517700	20.759708
278.595337	1097.275757	5513.521484	2013.475342	20.746119
278.971191	1097.318726	5547.805664	2018.035034	20.687990
279.347046	1096.716553	5572.969727	2024.401489	20.724586
279.722870	1095.727051	5607.189453	2027.175903	20.646273
280.098663	1096.953125	5631.234863	2032.811035	20.639606
280.474396	1098.222168	5683.004883	2038.940918	20.518284
280.850098	1099.727539	5749.679688	2053.372803	20.508711
281.225800	1099.770630	5852.595703	2071.482666	20.444935
281.601440	1099.125488	5983.816895	2099.550537	20.480824
281.977051	1098.996338	6153.665527	2133.124512	20.458870
282.352600	1100.265503	6314.695801	2161.278564	20.347631
282.728149	1102.996948	6448.454590	2186.786865	20.274971
283.103668	1104.007935	6547.198242	2206.380615	20.252327
283.479156	1102.588379	6633.079590	2223.458008	20.267090
283.854553	1102.502319	6720.380859	2240.621338	20.258877
284.229950	1098.480347	6819.877930	2260.194092	20.304720
284.605347	1096.501587	6916.750000	2281.788086	20.364878
284.980652	1094.888428	7007.728516	2296.951172	20.329702
285.355988	1092.500977	7095.331055	2316.007568	20.382162
285.731201	1094.243042	7173.210938	2328.073486	20.296709
286.106445	1094.888428	7234.551758	2339.816650	20.276817
286.481659	1094.802368	7309.464355	2355.345459	20.283373
286.856781	1091.490112	7380.248047	2367.411865	20.288931
287.231934	1093.942017	7436.878418	2379.047607	20.260420
287.607025	1097.254272	7468.667480	2383.456787	20.187084
287.982056	1100.114868	7471.699707	2383.306152	20.139278
288.357086	1103.577637	7457.009766	2377.993408	20.058699
288.732086	1104.201294	7427.049805	2368.551270	19.996525
289.107025	1104.373413	7399.476563	2358.335449	19.919643
289.481934	1106.137085	7369.988770	2351.517334	19.882021
289.856842	1104.395020	7367.579590	2349.172852	19.874519
290.231659	1103.276611	7383.409668	2353.732666	19.911299
290.606506	1102.717407	7399.583984	2352.936768	19.854626
290.981262	1104.029419	7420.532715	2357.496582	19.844320
291.355988	1103.341064	7460.408203	2361.711914	19.794832
291.730713	1101.276245	7499.531250	2371.476563	19.852293
292.105377	1100.996582	7523.040527	2380.638916	19.925779
292.480011	1102.115112	7531.126953	2388.446533	20.008230
292.854614	1101.340698	7544.418945	2401.286865	20.175856
293.229187	1102.093628	7573.949707	2419.697754	20.358984
293.603729	1104.115356	7617.632324	2440.152100	20.511757
293.978241	1103.771240	7652.840332	2461.358887	20.729475
294.352692	1101.964478	7681.683105	2480.952637	20.958162
294.727081	1101.061035	7708.525391	2512.031494	21.354189
295.101501	1098.609253	7761.865234	2546.078613	21.723154
295.475830	1095.512085	7848.133301	2588.599854	22.111233
295.850189	1095.038940	7991.893555	2642.499268	22.437189
296.224457	1091.683716	8203.381836	2709.196045	22.744389
296.598694	1089.403809	8463.350586	2791.786865	23.086456
296.972931	1089.016602	8729.597656	2874.915283	23.373859
297.347107	1088.586426	8935.946289	2947.569824	23.689285
297.721283	1087.898071	9061.037109	2998.199463	23.959213
298.095367	1089.769409	9098.051758	3030.547607	24.234638
298.469452	1092.737427	9080.931641	3047.754150	24.473825
298.843475	1092.199707	9037.636719	3054.722412	24.699997
299.217529	1094.587158	8972.337891	3057.153076	24.912769
299.591492	1096.436890	8892.672852	3050.399414	25.062897
299.965424	1098.135864	8774.442383	3034.182617	25.221071
300.339325	1102.179565	8594.958008	3005.060791	25.396204
300.713196	1103.513062	8374.263672	2960.452881	25.539864
301.087036	1105.448730	8138.126465	2911.909180	25.686666
301.460815	1104.975586	7937.585938	2868.979004	25.817415
301.834564	1103.771118	7774.533203	2834.716553	25.948240
302.208282	1103.125854	7649.119141	2805.917480	26.012732
302.582001	1103.297974	7531.814453	2779.656006	26.076902
302.955658	1103.297974	7423.306641	2755.954102	26.149586
303.329254	1100.889038	7332.241699	2733.435303	26.198908
303.702820	1101.276245	7248.747070	2715.798828	26.263201
304.076416	1100.910645	7176.007813	2698.377197	26.295324
304.449921	1099.491089	7122.452637	2686.612305	26.351177
304.823395	1099.749146	7062.165527	2673.879639	26.400881
305.196838	1099.426636	7003.878418	2657.554932	26.389044
305.570251	1097.921021	6932.858887	2637.724609	26.389374
305.943604	1096.479980	6870.485840	2619.055664	26.369486
306.316986	1096.350952	6825.146973	2608.839600	26.401510
306.690277	1094.759399	6800.218750	2601.075195	26.401306
307.063507	1094.200073	6800.971680	2600.709473	26.398628
307.436768	1095.038940	6830.372070	2606.495117	26.353416
307.809937	1092.328979	6880.078125	2618.582520	26.370417
308.183136	1093.081665	6951.484375	2634.692139	26.314518
308.556244	1091.640747	7039.259277	2655.468994	26.293350
308.929321	1092.802002	7145.702637	2679.794678	26.218714
309.302399	1091.963379	7244.488770	2705.045166	26.218206
309.675446	1093.597778	7353.104492	2732.726074	26.186220
310.048401	1095.167969	7449.568359	2760.406738	26.206072
310.421356	1093.662354	7553.624512	2789.227539	26.247293
310.794281	1094.049438	7670.606445	2816.822266	26.195663
311.167145	1096.264771	7784.168945	2844.072998	26.133871
311.539978	1100.437378	7864.242676	2864.290283	26.077820
311.912781	1102.588135	7910.098145	2873.345215	26.011818
312.285553	1101.147095	7899.667480	2873.259277	26.066145
312.658295	1102.308472	7851.940430	2860.139648	26.043364
313.031006	1101.254639	7786.728027	2842.825684	26.050077
313.403656	1101.792358	7728.354980	2822.844727	25.972023
313.776276	1101.663208	7684.435547	2809.251465	25.940260
314.148865	1102.029053	7688.415527	2806.326416	25.876060
314.521454	1105.040161	7694.351563	2801.809570	25.750330
314.893982	1103.147583	7677.596680	2797.808838	25.776474
315.266449	1101.018311	7620.212891	2782.344482	25.790398
315.638885	1095.899292	7539.772949	2759.739502	25.820498
316.011322	1094.544189	7452.429199	2738.597412	25.858494
316.383667	1094.759277	7385.065430	2720.057373	25.838140
316.756042	1094.458130	7327.316895	2704.012451	25.823692
317.128326	1094.049561	7277.848145	2691.042969	25.825443
317.500610	1094.329102	7220.959473	2679.170654	25.868078
317.872833	1094.157104	7145.443848	2661.146973	25.895151
318.245087	1094.608643	7047.453613	2637.789307	25.923416
318.617218	1093.468872	6948.925293	2616.431885	26.009296
318.989319	1094.780762	6877.604980	2598.042480	25.995287
319.361420	1097.684448	6835.212402	2590.449951	26.017572
319.733490	1100.889160	6807.423828	2582.707031	25.967035
320.105530	1099.792114	6786.690430	2577.265381	25.980299
320.477509	1100.566528	6764.343750	2571.802490	25.976233
320.849457	1101.512817	6742.125488	2567.716064	25.993687
321.221375	1099.899780	6731.974609	2561.242188	25.946787
321.593231	1100.200806	6729.565430	2560.381836	25.938646
321.965088	1100.802979	6731.823242	2561.263672	25.935986
322.336884	1102.459106	6746.857422	2565.221191	25.915287
322.708618	1100.265381	6786.432617	2569.759521	25.843317
323.080414	1101.254761	6844.159668	2584.427734	25.826181
323.452118	1102.179565	6947.871582	2606.495117	25.733747
323.823761	1099.899658	7085.007324	2639.380859	25.721865
324.195343	1102.846313	7229.239258	2672.890381	25.627544
324.566925	1101.061035	7372.160645	2704.765381	25.572937
324.938507	1099.189941	7509.081055	2735.242188	25.523870
325.310059	1099.964355	7620.814453	2767.418213	25.571112
325.681519	1099.663208	7736.399902	2799.185791	25.607805
326.052948	1098.802856	7852.091797	2825.447021	25.567455
326.424408	1094.458130	7916.723145	2843.814941	25.641876
326.795776	1097.275757	7936.703613	2849.923096	25.625643
327.167084	1095.705688	7906.787109	2839.879150	25.607878
327.538391	1093.490356	7825.529785	2816.349121	25.591928
327.909668	1095.296997	7721.903320	2788.108887	25.545683
328.280884	1095.813232	7621.073730	2762.256104	25.538334
328.652100	1096.802734	7529.922363	2738.081299	25.512949
329.023254	1097.856445	7453.332520	2721.283691	25.543755
329.394348	1098.200562	7390.443359	2703.388916	25.510592
329.765442	1097.834839	7310.196777	2681.622803	25.494137
330.136475	1098.351074	7226.937988	2661.555908	25.506775
330.507538	1099.878174	7159.510742	2641.187744	25.435692
330.878479	1097.619873	7106.687500	2633.917969	25.566332
331.249420	1098.673706	7078.705078	2628.970947	25.590120
331.620331	1097.168091	7080.082520	2632.132568	25.655798
331.991211	1096.092896	7099.223633	2642.650146	25.762510
332.362030	1094.716309	7135.120605	2653.597412	25.807562
332.732819	1093.877441	7177.190430	2668.373291	25.882210
333.103577	1092.888184	7218.851074	2675.750732	25.838593
333.474304	1093.103271	7245.328125	2684.246338	25.862890
333.845001	1093.103271	7266.728516	2690.333252	25.871834
334.215668	1095.318481	7282.107422	2697.000977	25.888752
334.586273	1096.221802	7310.819824	2707.711914	25.930721
334.956818	1097.490845	7336.048340	2710.593994	25.856989
335.327362	1096.437012	7358.523926	2721.928711	25.957668
335.697876	1099.534058	7373.127930	2727.499512	25.949488
336.068329	1099.964355	7380.677734	2730.553467	25.961845
336.438751	1099.964233	7374.892578	2733.865723	26.038568
336.809174	1103.233521	7369.923828	2736.339111	26.060097
337.179504	1103.018433	7381.000000	2748.706055	26.213642
337.549896	1103.469971	7413.283203	2761.460205	26.276375
337.920135	1105.814331	7465.849609	2777.849365	26.289713
338.290375	1104.115234	7520.394043	2794.754639	26.349220
338.660614	1103.835815	7566.679688	2806.046631	26.338419
339.030792	1104.975708	7605.523438	2819.360107	26.372921
339.400940	1107.556641	7646.431152	2828.479492	26.318335
339.771027	1106.309204	7679.596680	2837.555664	26.337605
340.141083	1106.825317	7714.590820	2850.697021	26.391247
340.511139	1107.965210	7751.798828	2858.827148	26.353188
340.881134	1105.642456	7796.600098	2871.796631	26.396135
341.251068	1105.599243	7825.829590	2875.603516	26.338446
341.621002	1104.373291	7840.841797	2882.120361	26.389896
341.990875	1101.233154	7849.101563	2886.335938	26.454323
342.360718	1099.964233	7858.995117	2890.659180	26.493368
342.730560	1100.136230	7879.062012	2897.047119	26.507311
343.100311	1097.834961	7921.325195	2909.844482	26.555464
343.470032	1097.383301	7984.279297	2927.115479	26.568314
343.839752	1097.125122	8068.074707	2954.473633	26.644125
344.209442	1098.028564	8161.526855	2982.670898	26.681431
344.579041	1096.523071	8264.938477	3017.126465	26.792580
344.948639	1095.813232	8365.853516	3048.893799	26.864784
345.318176	1098.845825	8455.262695	3081.586182	26.952528
345.687714	1098.286621	8552.909180	3107.675537	26.954939
346.057190	1098.200562	8625.068359	3129.957764	26.993397
346.426636	1100.136230	8678.581055	3149.809570	27.046095
346.796051	1099.297363	8703.013672	3164.133545	27.155619
347.165405	1099.985596	8698.797852	3166.241455	27.191826
347.534729	1099.598633	8657.610352	3159.918213	27.260075
347.904083	1099.770752	8593.752930	3142.711914	27.261087
348.273315	1099.211426	8511.786133	3123.161133	27.304274
348.642517	1099.491089	8436.227539	3101.889648	27.292770
349.011719	1099.749146	8361.422852	3080.231201	27.273079
349.380890	1096.781006	8308.834961	3064.981934	27.290436
349.749969	1097.942505	8260.614258	3057.196045	27.353668
350.119049	1101.147217	8238.375977	3053.109375	27.349022
350.488098	1102.308716	8235.384766	3053.432129	27.353184
350.857117	1103.534668	8238.632813	3056.894775	27.376780
351.226074	1102.179565	8268.012695	3065.863525	27.403429
351.595001	1102.910889	8313.008789	3081.263428	27.438637
351.963867	1102.910889	8365.336914	3104.492188	27.560781
352.332764	1099.813721	8432.206055	3125.290039	27.623674
352.701538	1099.146973	8501.246094	3149.293213	27.696823
353.070343	1100.738525	8591.322266	3183.146973	27.800348
353.439056	1100.867676	8685.075195	3214.548584	27.869503
353.807770	1101.233276	8792.744141	3244.746094	27.868553
354.176453	1100.243896	8898.822266	3277.567139	27.919491
354.545105	1096.781128	9022.581055	3311.872803	27.947865
354.913666	1096.931641	9173.868164	3355.340088	27.961201
355.282227	1098.652344	9334.511719	3406.830322	28.025951
355.650757	1095.770264	9501.285156	3460.815674	28.136831
356.019226	1095.899292	9686.339844	3512.607178	28.132528
356.387695	1097.275757	9897.461914	3577.905518	28.188379
356.756104	1097.727417	10147.257813	3652.775146	28.234039
357.124451	1096.458496	10424.130859	3730.118164	28.234909
357.492828	1095.856201	10681.905273	3807.009277	28.282280
357.861084	1096.716553	10896.963867	3875.469482	28.353907
358.229401	1096.436890	11065.134766	3931.583740	28.440493
358.597595	1100.028687	11179.878906	3969.222900	28.464651
358.965759	1098.308105	11285.785156	4008.045166	28.561901
359.333923	1097.576904	11397.927734	4044.738037	28.612242
359.702057	1099.770630	11556.829102	4089.947754	28.594822
360.070129	1098.329590	11736.874023	4149.503418	28.680368
360.438141	1100.695435	11947.889648	4214.607910	28.707079
360.806122	1102.717163	12195.875977	4292.596680	28.755373
361.174133	1104.502441	12475.975586	4382.800781	28.829145
361.542053	1106.201660	12787.734375	4480.060547	28.881987
361.909912	1104.782104	13059.295898	4569.598145	28.983328
362.277771	1104.072266	13289.452148	4636.617188	28.990026
362.645599	1102.523560	13435.535156	4687.054199	29.064522
363.013367	1101.684937	13487.328125	4707.207520	29.110498
363.381134	1101.878540	13454.527344	4704.282227	29.163008
363.748810	1100.824707	13341.522461	4677.934570	29.223089
364.116455	1101.792480	13151.778320	4629.111328	29.272388
364.484100	1100.136353	12877.100586	4552.478516	29.314365
364.851715	1097.426270	12500.042969	4443.001953	29.340420
365.219238	1095.641113	12017.209961	4304.296875	29.379074
365.586761	1094.071167	11496.714844	4157.375488	29.447363
365.954224	1092.587036	11045.755859	4022.347900	29.435457
366.321686	1092.113770	10687.518555	3920.572021	29.477219
366.689117	1093.275269	10452.758789	3851.229736	29.466953
367.056458	1096.824097	10290.286133	3803.417725	29.440420
367.423737	1097.533936	10172.636719	3763.649170	29.378347
367.791077	1098.630859	10063.891602	3730.527100	29.356606
368.158295	1099.362061	9978.162109	3701.017822	29.301886
368.525543	1099.899658	9899.936523	3679.122559	29.309227
368.892700	1102.222534	9826.788086	3661.077393	29.329311
369.259827	1103.233521	9775.147461	3646.882080	29.332029
369.626953	1104.567017	9742.949219	3635.181396	29.295004
369.994019	1105.083130	9712.256836	3625.330566	29.280779
370.361053	1105.814453	9696.125977	3620.039795	29.268150
370.728027	1104.201294	9690.146484	3620.556396	29.307838
371.094971	1102.545166	9704.665039	3624.449463	29.317242
371.461914	1099.792114	9732.152344	3640.838379	29.436287
371.828796	1099.964355	9764.951172	3654.796875	29.484554
372.195618	1099.383545	9808.225586	3671.831299	29.538345
372.562408	1099.598633	9839.046875	3684.542725	29.577887
372.929199	1098.867310	9875.116211	3698.479736	29.620995
373.295898	1096.544434	9908.454102	3710.653320	29.665632
373.662598	1097.576782	9953.125977	3725.493896	29.675371
374.029236	1098.093018	9996.227539	3743.689697	29.732037
374.395844	1098.802856	10033.027344	3757.755615	29.761425
374.762421	1100.566528	10077.097656	3775.995117	29.804705
375.128967	1099.555542	10134.545898	3802.170166	29.912758
375.495483	1103.448608	10215.415039	3826.990479	29.889727
375.861908	1101.125854	10344.572266	3866.651367	29.918770
376.228333	1100.609497	10513.862305	3920.528320	29.956902
376.594727	1098.265137	10751.439453	3991.612549	29.973017
376.961090	1097.770386	11016.181641	4071.343018	29.980333
377.327393	1101.211792	11269.352539	4151.611328	29.999578
377.693665	1099.620117	11461.527344	4218.415039	30.098658
378.059906	1100.243896	11601.781250	4266.679199	30.152113
378.426086	1101.190186	11685.490234	4297.887207	30.202253
378.792267	1100.781494	11717.967773	4315.997070	30.283123
379.158386	1100.200806	11706.439453	4314.685547	30.307493
379.524445	1098.006958	11674.457031	4313.222656	30.399763
379.890503	1099.964233	11605.610352	4301.694336	30.476278
380.256531	1100.996582	11494.047852	4274.314453	30.533073
380.622467	1102.953857	11331.468750	4234.546387	30.616299
380.988403	1103.255005	11130.669922	4182.862793	30.711882
381.354279	1101.104126	10936.257813	4131.178711	30.808617
381.720154	1099.426636	10784.260742	4094.313965	30.923475
382.085968	1100.738525	10692.442383	4071.084961	30.967871
382.451752	1099.491089	10663.148438	4071.171143	31.072634
382.817474	1100.028809	10677.924805	4081.838867	31.132202
383.183197	1101.512939	10747.503906	4112.918457	31.219244
383.548859	1101.211792	10817.749023	4145.137207	31.327265
383.914490	1099.491211	10895.329102	4174.882813	31.394880
384.280060	1099.276123	10966.520508	4207.059082	31.495956
384.645599	1098.802856	11036.163086	4242.375000	31.633877
385.011108	1096.781128	11120.754883	4280.250488	31.758556
385.376617	1095.426147	11219.089844	4320.492676	31.856710
385.742035	1095.684082	11332.500977	4356.668945	31.855459
386.107452	1093.361328	11437.826172	4401.039551	31.975344
386.472778	1093.210815	11530.417969	4442.399902	32.088940
386.838135	1090.823364	11626.559570	4486.018066	32.225510
387.203430	1090.328735	11692.825195	4517.613770	32.325268
387.568634	1089.446777	11741.561523	4545.982910	32.449295
387.933838	1091.296509	11771.308594	4570.415527	32.575985
388.299042	1091.855713	11806.624023	4596.934570	32.712597
388.664124	1089.403809	11833.939453	4616.809082	32.829762
389.029236	1092.931152	11843.661133	4639.198730	32.986294
389.394318	1094.114136	11856.931641	4659.373047	33.125702
389.759308	1094.157104	11859.254883	4682.816895	33.336063
390.124298	1094.415161	11897.474609	4716.369141	33.527115
390.489227	1096.178833	11985.441406	4763.428223	33.677666
390.854126	1096.350830	12100.639648	4814.123047	33.784756
391.218964	1097.748901	12246.528320	4881.658203	33.940121
391.583771	1097.641479	12404.568359	4949.214844	34.063839
391.948578	1094.372192	12542.930664	5015.330078	34.248486
392.313354	1092.436401	12655.502930	5071.144531	34.408764
392.678040	1094.522705	12759.365234	5126.591797	34.565994
393.042694	1091.554565	12871.121094	5178.275391	34.693302
393.407349	1093.705322	12997.244141	5241.660645	34.846401
393.771942	1094.630371	13137.218750	5309.109375	34.996456
394.136505	1093.985107	13233.640625	5364.041016	35.174438
394.501007	1091.145996	13250.416016	5393.055176	35.379669
394.865479	1092.113770	13191.269531	5397.228027	35.581940
395.229919	1090.715820	13059.208984	5368.515137	35.742172
395.594360	1094.264771	12900.953125	5333.951660	35.909199
395.958710	1098.007080	12755.558594	5298.376953	36.031322
396.323029	1098.953491	12622.725586	5269.771484	36.193165
396.687286	1099.254517	12495.181641	5240.176270	36.336861
397.051544	1100.932129	12373.447266	5207.505859	36.429966
397.415771	1098.888794	12218.524414	5169.458008	36.607037
397.779938	1099.426636	12045.384766	5123.818359	36.766006
398.144043	1100.803101	11876.718750	5078.564941	36.913445
398.508148	1099.383545	11731.345703	5039.700195	37.061050
398.872192	1099.039429	11617.761719	5015.460449	37.232857
399.236237	1099.297485	11542.204102	5008.276367	37.431908
399.600189	1097.060669	11490.456055	5007.889160	37.628017
399.964111	1095.920776	11451.311523	5012.771484	37.824268
400.328003	1094.866943	11420.555664	5019.008789	38.003681
400.691925	1093.081787	11410.338867	5032.751953	38.185249
401.055695	1093.554932	11395.217773	5053.787598	38.442654
401.419495	1093.404297	11390.186523	5071.166016	38.631115
401.783234	1092.522583	11416.532227	5097.707031	38.794853
402.146942	1093.490356	11432.211914	5118.763672	38.933956
402.510620	1096.071167	11475.981445	5152.058105	39.075356
402.874237	1096.910034	11545.322266	5193.525391	39.208019
403.237823	1097.942505	11646.604492	5250.435547	39.365116
403.601379	1097.899536	11783.717773	5322.013672	39.530094
403.964874	1097.598389	11953.416016	5403.465332	39.664146
404.328369	1098.845825	12137.160156	5492.487305	39.803555
404.691772	1101.899902	12298.964844	5576.411621	39.961472
405.055176	1100.394409	12461.372070	5653.001953	40.072323
405.418549	1100.760010	12608.122070	5726.042969	40.194122
405.781860	1100.953613	12710.436523	5782.802734	40.327801
406.145142	1100.372925	12804.383789	5833.390137	40.439274
406.508362	1096.910034	12858.259766	5871.630859	40.596706
406.871552	1096.071289	12872.971680	5891.891602	40.722263
407.234741	1095.533569	12855.744141	5894.751953	40.808949
407.597870	1096.286377	12795.436523	5878.040527	40.872658
407.960938	1099.082397	12714.909180	5865.393555	41.032902
408.323975	1098.759766	12628.490234	5840.336426	41.124783
408.686981	1099.318970	12567.297852	5826.528320	41.220947
409.049957	1099.405029	12529.293945	5825.775391	41.350971
409.412903	1100.050293	12531.552734	5836.550781	41.433754
409.775787	1099.942749	12562.309570	5865.371582	41.574558
410.138611	1100.652466	12608.766602	5903.054199	41.730572
410.501434	1103.900269	12662.795898	5941.725098	41.853695
410.864227	1104.609985	12703.165039	5974.589355	41.987812
411.226929	1104.502441	12739.277344	6009.087891	42.154533
411.589630	1104.696045	12787.863281	6042.339355	42.262886
411.952271	1103.835815	12802.446289	6057.695801	42.345711
412.314911	1103.083008	12808.704102	6079.011230	42.508877
412.677490	1101.577393	12819.889648	6091.979980	42.586357
413.040009	1104.545532	12832.342773	6105.745605	42.643986
413.402496	1102.523682	12817.157227	6106.304688	42.713936
413.764984	1102.652832	12790.637695	6100.927734	42.764217
414.127380	1100.953613	12777.344727	6098.734375	42.802444
414.489777	1100.329956	12783.412109	6104.283203	42.830761
414.852112	1101.104248	12831.394531	6123.726563	42.817543
415.214386	1100.932129	12908.696289	6154.375488	42.797634
415.576660	1100.222290	13008.063477	6199.349609	42.821594
415.938904	1098.695190	13161.844727	6264.152832	42.820141
416.301086	1101.211792	13343.672852	6336.333984	42.762009
416.663208	1101.512817	13534.774414	6416.967285	42.751892
417.025299	1097.964111	13747.102539	6508.418945	42.773308
417.387390	1097.641479	13993.647461	6617.185547	42.800415
417.749420	1097.383301	14281.855469	6744.190918	42.829227
418.111389	1097.576904	14608.261719	6886.896484	42.849934
418.473328	1096.738037	14982.374023	7043.539551	42.827003
418.835266	1094.673340	15378.788086	7219.216797	42.876602
419.197144	1096.781128	15816.389648	7405.412109	42.858688
419.558960	1096.092896	16293.288086	7617.653320	42.912922
419.920746	1095.684204	16814.921875	7857.274902	43.014751
420.282471	1095.899292	17418.888672	8121.437012	43.040752
420.644226	1094.608887	18049.289063	8411.236328	43.154030
421.005920	1092.393433	18652.761719	8686.925781	43.248135
421.367523	1092.909668	19205.388672	8941.646484	43.333313
421.729126	1092.436401	19689.105469	9165.071289	43.409035
422.090668	1091.640503	20103.029297	9361.009766	43.496922
422.452179	1092.414917	20437.283203	9531.396484	43.623875
422.813660	1092.156860	20766.935547	9696.964844	43.735218
423.175110	1089.382324	21078.695313	9870.535156	43.929237
423.536469	1089.016724	21354.472656	10012.917969	44.035042
423.897858	1088.328369	21574.929688	10132.610352	44.147305
424.259155	1086.242065	21651.544922	10206.274414	44.346695
424.620453	1086.134644	21666.791016	10236.407227	44.460548
424.981689	1091.188965	21630.486328	10250.345703	44.593330
425.342865	1092.092285	21562.048828	10244.990234	44.713814
425.704041	1091.769653	21472.617188	10231.676758	44.845570
426.065186	1093.769775	21369.960938	10208.599609	44.953365
426.426239	1094.565674	21230.953125	10161.797852	45.029095
426.787262	1096.522949	20996.988281	10077.313477	45.128548
427.148254	1096.888672	20678.130859	9953.169922	45.228394
427.509216	1098.028442	20293.246094	9796.913086	45.317982
427.870178	1098.222046	19842.652344	9603.512695	45.375031
428.231049	1097.942383	19410.876953	9407.015625	45.372704
428.591858	1100.179321	18984.113281	9219.745117	45.401455
428.952698	1098.910278	18575.439453	9036.839844	45.420517
429.313446	1099.189941	18204.597656	8874.283203	45.454006
429.674164	1101.985962	17855.242188	8715.875977	45.447227
430.034851	1101.147217	17533.355469	8571.191406	45.459766
430.395477	1100.244019	17253.707031	8441.883789	45.449326
430.756104	1099.297607	17029.400391	8345.657227	45.488468
431.116699	1097.297241	16851.013672	8255.819336	45.440208
431.477203	1095.727295	16712.544922	8198.780273	45.483356
431.837646	1097.318848	16644.773438	8177.421875	45.538662
432.198090	1098.243652	16616.832031	8172.840820	45.587891
432.558502	1095.619629	16627.585938	8182.023926	45.624641
432.918884	1095.641113	16653.998047	8209.534180	45.723934
433.279205	1094.049561	16710.177734	8250.893555	45.829823
433.639465	1093.533325	16786.314453	8301.996094	45.934898
433.999756	1095.060425	16865.056641	8363.895508	46.092815
434.359924	1097.211182	16953.216797	8433.344727	46.267223
434.720093	1097.899536	17034.044922	8489.007813	46.379524
435.080200	1099.641602	17095.513672	8542.305664	46.528656
435.440277	1101.211670	17160.146484	8594.010742	46.658131
435.800354	1099.275879	17185.830078	8641.306641	46.884064
436.160370	1097.340210	17192.820313	8668.966797	47.041943
436.520325	1099.189819	17192.820313	8702.777344	47.245941
436.880249	1098.265137	17205.078125	8725.705078	47.355366
437.240112	1098.050171	17215.617188	8755.624023	47.510727
437.599976	1098.265137	17262.482422	8800.790039	47.651707
437.959808	1097.662964	17333.457031	8860.216797	47.811359
438.319519	1096.350952	17413.857422	8929.385742	48.003868
438.679260	1091.145996	17536.646484	9009.868164	48.151302
439.038940	1092.586914	17707.978516	9115.021484	48.283154
439.398590	1092.414795	17931.275391	9249.920898	48.444523
439.758179	1092.866577	18226.859375	9408.090820	48.530575
440.117767	1095.124878	18574.494141	9610.523438	48.716854
440.477295	1095.490601	18934.453125	9810.075195	48.851410
440.836792	1095.920776	19279.357422	10007.433594	49.008953
441.196198	1098.867310	19575.050781	10176.464844	49.131348
441.555603	1098.544800	19804.392578	10320.180664	49.298145
441.914978	1098.265137	19959.164063	10421.590820	49.432037
442.274323	1098.738403	20082.167969	10499.708984	49.521984
442.633575	1103.728149	20140.388672	10564.254883	49.696354
442.992859	1103.685181	20138.429688	10598.129883	49.879547
443.352051	1103.384033	20087.412109	10594.085938	49.993092
443.711182	1105.491943	19969.117188	10557.479492	50.106953
444.070313	1103.921753	19825.337891	10510.656250	50.245850
444.429382	1103.771240	19678.630859	10461.961914	50.380947
444.788452	1103.448608	19573.458984	10431.249023	50.502415
445.147430	1101.641968	19542.746094	10438.776367	50.632191
445.506409	1097.963989	19594.320313	10477.297852	50.709091
445.865295	1094.264771	19736.939453	10563.954102	50.795769
446.224182	1092.888184	19956.279297	10697.454102	50.916435
446.583038	1093.899048	20226.097656	10836.632813	50.923229
446.941833	1092.630005	20505.294922	10992.480469	50.996868
447.300598	1093.597778	20762.875000	11143.250977	51.093151
447.659302	1091.877197	20991.054688	11277.248047	51.184883
448.018005	1093.791504	21158.558594	11373.066406	51.230473
448.376648	1093.597900	21260.806641	11439.138672	51.298824
448.735229	1096.652100	21288.230469	11471.035156	51.379753
449.093781	1098.157715	21246.203125	11461.829102	51.437607
449.452301	1100.308350	21122.595703	11413.844727	51.510281
449.810791	1103.577759	20923.970703	11322.176758	51.555984
450.169220	1103.900269	20623.998047	11173.578125	51.586205
450.527618	1102.373169	20295.289063	11021.646484	51.681950
450.885956	1103.706665	20003.423828	10867.240234	51.659679
451.244263	1103.771118	19716.507813	10733.760742	51.738708
451.602539	1104.781982	19494.673828	10619.766602	51.740292
451.960785	1104.480835	19310.414063	10536.766602	51.808857
452.318970	1108.094238	19172.310547	10469.790039	51.824528
452.677124	1104.609863	19023.412109	10395.222656	51.848404
453.035248	1104.222778	18869.242188	10317.836914	51.863800
453.393311	1105.599243	18696.167969	10241.139648	51.934307
453.751312	1104.695923	18529.070313	10163.388672	51.988621
454.109314	1107.212402	18388.814453	10097.144531	52.020245
454.467285	1109.169800	18245.613281	10028.102539	52.046581
454.825195	1108.739502	18072.367188	9953.900391	52.141922
455.183044	1109.943848	17904.023438	9861.049805	52.108276
455.540894	1106.545654	17691.955078	9764.478516	52.202103
455.898651	1106.674683	17504.232422	9671.047852	52.229561
456.256378	1101.856934	17306.982422	9576.347656	52.295124
456.614105	1103.061401	17179.052734	9512.749023	52.312092
456.971771	1104.050781	17093.775391	9474.614258	52.349640
457.329407	1101.749512	17093.128906	9478.658203	52.383904
457.686981	1101.684814	17167.417969	9516.383789	52.376690
458.044525	1099.598633	17346.685547	9612.869141	52.398750
458.402008	1099.189941	17633.281250	9765.791016	52.416557
458.759460	1098.458618	18066.625000	9993.518555	52.422043
459.116913	1096.329468	18630.761719	10300.566406	52.492363
459.474274	1098.286621	19308.283203	10651.491211	52.461323
459.831635	1098.630859	19928.597656	10978.069336	52.466576
460.188904	1098.738403	20480.904297	11273.074219	52.493286
460.546173	1098.587769	20918.871094	11509.296875	52.525532
460.903381	1097.684448	21253.000000	11690.115234	52.554028
461.260559	1098.093262	21482.876953	11805.076172	52.524387
461.617706	1101.082764	21610.376953	11878.849609	52.550644
461.974762	1100.803101	21586.716797	11867.492188	52.556549
462.331848	1099.017822	21431.537109	11791.675781	52.588947
462.688843	1099.856812	21097.753906	11632.107422	52.666794
463.045837	1099.856812	20608.511719	11381.711914	52.704075
463.402740	1100.028931	20001.488281	11074.662109	52.771763
463.759613	1098.759888	19425.611328	10773.937500	52.792362
464.116486	1099.017944	18915.269531	10512.807617	52.838219
464.473267	1100.222290	18506.187500	10302.674805	52.869534
464.830048	1099.899658	18187.908203	10137.385742	52.887886
465.186737	1101.491333	17932.179688	10006.637695	52.910175
465.543457	1098.910522	17749.082031	9910.001953	52.918922
465.900085	1096.135864	17683.847656	9881.396484	52.962467
466.256683	1093.877563	17708.130859	9894.515625	52.970406
466.613251	1093.081665	17779.880859	9927.618164	52.943264
466.969757	1092.156738	17868.923828	9972.761719	52.933949
467.326233	1092.974121	17954.439453	10019.778320	52.942047
467.682678	1093.468750	18007.349609	10055.869141	52.988434
468.039093	1094.329102	18032.878906	10067.462891	52.974625
468.395416	1091.554688	18023.759766	10064.108398	52.991055
468.751740	1089.511353	18002.896484	10063.526367	53.058655
469.108032	1089.511353	17967.236328	10060.708984	53.154068
469.464233	1089.877075	17925.876953	10041.114258	53.167244
469.820435	1095.770264	17833.671875	10004.507813	53.224934
470.176575	1097.533936	17685.136719	9938.090820	53.296165
470.532715	1099.340576	17518.494141	9861.694336	53.366657
470.888763	1103.470093	17376.755859	9793.879883	53.402920
471.244751	1103.190430	17260.076172	9739.722656	53.454189
471.600769	1103.534668	17199.617188	9712.600586	53.485477
471.956696	1104.029297	17199.033203	9718.859375	53.524872
472.312592	1104.717651	17266.589844	9770.350586	53.617756
472.668457	1105.964966	17356.882813	9833.002930	53.701817
473.024292	1107.126465	17486.939453	9907.227539	53.725288
473.380035	1106.954468	17572.779297	9969.493164	53.823841
473.735779	1106.007935	17660.789063	10024.209961	53.870853
474.091492	1104.953979	17747.638672	10084.281250	53.953594
474.447113	1102.179565	17866.193359	10157.043945	54.013702
474.802765	1098.394165	17964.505859	10232.321289	54.155499
475.158295	1098.587769	18087.423828	10314.008789	54.243980
475.513824	1099.491089	18213.548828	10395.675781	54.318996
475.869324	1098.114624	18362.341797	10491.407227	54.409000
476.224762	1098.781372	18489.732422	10578.235352	54.507969
476.580170	1100.007202	18638.607422	10670.008789	54.565372
476.935516	1099.082397	18791.574219	10776.647461	54.698711
477.290863	1099.469604	19031.796875	10932.730469	54.835384
477.646118	1096.867065	19283.615234	11088.493164	54.939045
478.001373	1097.533936	19573.435547	11262.621094	55.018082
478.356537	1098.609253	19855.857422	11442.063477	55.143772
478.711700	1100.501953	20156.970703	11619.246094	55.197762
479.066833	1099.254395	20462.707031	11801.504883	55.270359
479.421875	1097.555298	20789.414063	12016.671875	55.449898
479.776917	1098.544678	21111.562500	12233.386719	55.637997
480.131897	1098.222046	21482.617188	12462.403320	55.749420
480.486847	1097.146606	21913.056641	12741.878906	55.941502
480.841766	1098.781372	22435.853516	13062.434570	56.069798
481.196594	1098.953491	23050.208984	13432.459961	56.185883
481.551453	1098.093262	23857.900391	13934.285156	56.398510
481.906219	1095.211060	24897.945313	14567.847656	56.601215
482.260986	1094.479736	26347.199219	15432.750977	56.779121
482.615662	1092.135254	28416.939453	16694.263672	57.098774
482.970306	1093.640991	31148.205078	18452.158203	57.756676
483.324951	1093.619385	34243.640625	20592.960938	58.821510
483.679504	1092.673096	37399.925781	22863.757813	59.963455
484.034027	1092.113892	40339.859375	24938.595703	60.758858
484.388519	1091.597656	42912.027344	26656.335938	61.129784
484.742981	1089.898560	45000.953125	28015.386719	61.318245
485.097351	1088.586426	46633.558594	29085.345703	61.470581
485.451721	1092.759033	47805.765625	29862.904297	61.589149
485.806030	1096.501465	48616.898438	30436.611328	61.742138
486.160309	1096.114258	49095.046875	30847.175781	61.982758
486.514557	1098.135986	49099.496094	30979.255859	62.250568
486.868744	1098.265137	48648.539063	30769.167969	62.399014
487.222931	1097.856567	47882.898438	30211.699219	62.228951
487.577026	1099.168579	46976.785156	29484.513672	61.871883
487.931122	1100.071777	46097.984375	28848.330078	61.665653
488.285126	1101.964478	45262.703125	28352.460938	61.707520
488.639099	1103.642090	44510.371094	27977.251953	61.911160
488.993042	1103.706543	43848.421875	27674.330078	62.161190
489.346954	1101.727905	43273.769531	27445.851563	62.468216
489.700836	1102.609741	42718.285156	27224.769531	62.770000
490.054626	1103.233521	42111.195313	26956.306641	63.044033
490.408417	1100.889160	41562.910156	26717.267578	63.309689
490.762146	1102.093628	41075.882813	26524.726563	63.598255
491.115814	1103.491577	40714.914063	26422.951172	63.919590
491.469513	1103.599121	40368.914063	26337.111328	64.264122
491.823090	1102.007324	39915.222656	26176.167969	64.602119
492.176666	1101.813965	39426.257813	25978.830078	64.911613
492.530182	1100.609375	38929.359375	25789.667969	65.265327
492.883698	1099.813721	38390.558594	25560.175781	65.593651
493.237091	1099.017944	37800.746094	25286.056641	65.901642
493.590515	1099.232910	37121.738281	24942.423828	66.189713
493.943878	1098.243652	36263.609375	24472.925781	66.470749
494.297150	1101.233276	35105.378906	23809.251953	66.780151
494.650452	1100.630981	33647.519531	22923.419922	67.050308
495.003662	1100.093262	31910.638672	21851.244141	67.350807
495.356873	1099.792114	30217.744141	20791.910156	67.628784
495.710022	1100.028687	28792.429688	19915.283203	67.943748
496.063110	1098.329590	27677.992188	19275.527344	68.387619
496.416168	1098.867188	26896.216797	18837.126953	68.760010
496.769165	1100.544922	26366.167969	18562.988281	69.115425
497.122162	1100.286865	26053.806641	18426.025391	69.432045
497.475098	1100.566528	25846.599609	18359.158203	69.742859
497.828003	1100.803223	25765.664063	18387.310547	70.085564
498.180847	1099.190063	25726.951172	18442.349609	70.421181
498.533661	1096.479980	25654.445313	18478.310547	70.778786
498.886444	1097.598267	25577.039063	18503.171875	71.102821
499.239136	1096.221802	25444.720703	18483.814453	71.411354
499.591827	1097.727417	25234.654297	18395.591797	71.665565
499.944427	1098.222168	24928.873047	18236.947266	71.918831
500.297089	1096.243286	24563.923828	18040.623047	72.203041
500.649628	1095.899292	24183.425781	17832.617188	72.492470
501.002136	1097.017700	23780.343750	17604.052734	72.771667
501.354584	1097.232788	23425.330078	17414.716797	73.080498
501.707001	1100.394409	23066.189453	17206.712891	73.324539
502.059387	1102.523804	22777.572266	17040.476563	73.531334
502.411682	1104.524048	22528.509766	16901.062500	73.732956
502.764038	1104.265747	22331.023438	16794.318359	73.916389
503.116302	1104.480957	22180.294922	16728.740234	74.133598
503.468475	1104.803589	22081.445313	16703.748047	74.363396
503.820709	1104.954102	22042.277344	16709.769531	74.531090
504.172852	1105.943481	22012.984375	16709.898438	74.634926
504.524902	1106.136963	22011.242188	16733.601563	74.754295
504.876953	1104.588379	22025.222656	16778.402344	74.920357
505.228912	1102.631226	22043.330078	16811.437500	75.015671
505.580872	1100.222290	22069.484375	16850.085938	75.109291
505.932770	1096.953125	22046.945313	16855.765625	75.221092
506.284698	1098.996460	22020.857422	16866.089844	75.361809
506.636505	1100.695557	22023.373047	16876.908203	75.402458
506.988342	1100.179443	22017.480469	16882.283203	75.449997
507.340088	1100.136353	22023.845703	16900.332031	75.513359
507.691772	1100.674072	22037.267578	16910.095703	75.510956
508.043396	1099.684692	22092.435547	16965.523438	75.577705
508.395050	1100.308472	22172.833984	17032.046875	75.604317
508.746582	1101.555786	22285.621094	17113.281250	75.583824
509.098114	1101.039551	22428.003906	17223.917969	75.598564
509.449646	1099.405151	22588.648438	17337.007813	75.561531
509.801086	1100.200806	22787.533203	17481.626953	75.534538
510.152557	1097.447754	22997.281250	17619.494141	75.443710
510.503906	1094.909790	23199.820313	17745.833984	75.326813
510.855194	1096.114136	23391.392578	17879.787109	75.279045
511.206482	1096.028076	23587.716797	18009.976563	75.200882
511.557709	1094.587158	23787.632813	18154.056641	75.174881
511.908844	1096.458496	23983.898438	18269.017578	75.030495
512.260010	1095.275513	24123.050781	18358.533203	74.967110
512.611206	1094.415161	24226.591797	18416.326172	74.882324
512.962219	1096.178711	24295.806641	18443.855469	74.775658
513.313232	1099.512573	24345.337891	18463.320313	74.696457
513.664246	1099.899780	24347.125000	18445.791016	74.614891
514.015137	1101.663330	24320.863281	18409.636719	74.541641
514.366028	1103.362549	24279.220703	18381.117188	74.550659
514.716919	1103.319458	24214.181641	18316.076172	74.479073
515.067688	1103.706665	24113.310547	18226.925781	74.417702
515.418396	1106.158569	24022.310547	18137.001953	74.318077
515.769104	1105.857422	23951.248047	18068.734375	74.250763
516.119812	1105.857544	23936.923828	18035.697266	74.152649
516.470459	1104.136719	24019.449219	18054.732422	73.970604
516.821106	1103.943237	24165.898438	18133.859375	73.844200
517.171631	1102.631348	24438.595703	18309.859375	73.736946
517.522095	1104.072266	24824.949219	18560.277344	73.590050
517.872559	1101.104126	25355.875000	18906.621094	73.410370
518.222961	1099.491089	25922.587891	19278.085938	73.232582
518.573364	1099.878296	26497.068359	19644.433594	73.018135
518.923645	1097.447876	27009.025391	19967.763672	72.825806
519.273987	1095.813232	27444.949219	20228.785156	72.613281
519.624207	1095.017334	27744.255859	20401.474609	72.446564
519.974487	1094.845215	27967.314453	20526.523438	72.310730
520.324646	1097.146606	28054.812500	20553.580078	72.174026
520.674744	1099.426392	28052.123047	20494.992188	71.961502
521.024780	1100.351196	27905.179688	20338.562500	71.771439
521.374878	1100.415771	27644.673828	20093.841797	71.553802
521.724792	1102.588013	27274.068359	19767.933594	71.319412
522.074707	1100.544800	26863.738281	19417.246094	71.096390
522.424744	1100.136230	26471.169922	19084.642578	70.885979
522.774536	1100.265381	26182.986328	18818.396484	70.638794
523.124329	1099.082520	25963.087891	18612.392578	70.436401
523.474182	1100.846191	25892.238281	18514.550781	70.240929
523.823914	1101.426880	25940.138672	18495.689453	70.028839
524.173523	1102.029175	26151.929688	18586.238281	69.797516
524.523132	1100.588013	26546.710938	18816.439453	69.621025
524.872803	1100.007324	27100.238281	19145.857422	69.406502
525.222290	1098.544678	27838.675781	19596.169922	69.175522
525.571777	1098.695190	28641.482422	20111.523438	69.030151
525.921326	1100.544800	29516.044922	20661.333984	68.838448
526.270752	1100.996582	30439.126953	21244.976563	68.661430
526.620178	1103.706543	31463.101563	21893.486328	68.478897
526.969482	1103.663574	32721.966797	22706.642578	68.324280
527.318787	1102.416138	34311.453125	23740.123047	68.167313
527.668030	1102.416138	36333.511719	25125.373047	68.186806
528.017212	1100.588013	38582.175781	26776.607422	68.503021
528.366394	1098.243652	40807.421875	28442.533203	68.861382
528.715515	1099.964233	42803.152344	29876.925781	69.004227
529.064636	1102.201050	44375.453125	30962.330078	69.003662
529.413635	1101.125732	45543.597656	31735.392578	68.930161
529.762695	1100.652466	46308.406250	32187.835938	68.765160
530.111633	1098.028442	46743.621094	32418.876953	68.617462
530.460510	1096.415405	46786.746094	32392.167969	68.495346
530.809387	1096.996216	46388.996094	32045.242188	68.330490
531.158142	1095.017456	45484.238281	31349.091797	68.156349
531.506958	1094.006470	44063.546875	30234.669922	67.817024
531.855652	1096.759521	42402.140625	28847.318359	67.183876
532.204407	1096.049683	40807.140625	27470.886719	66.416809
532.552979	1095.081909	39555.570313	26384.625000	65.754608
532.901611	1093.963379	38680.625000	25630.123047	65.278908
533.250183	1090.522217	38107.992188	25099.242188	64.857811
533.598755	1091.511597	37671.503906	24723.773438	64.604340
533.947205	1093.834473	37317.117188	24394.207031	64.324303
534.295593	1093.770020	37026.246094	24115.248047	64.068726
534.643982	1093.146362	36790.921875	23884.123047	63.844246
534.992249	1098.329590	36565.519531	23685.128906	63.683640
535.340576	1099.211426	36345.882813	23482.628906	63.505054
535.688843	1096.867065	36093.421875	23258.882813	63.326279
536.037048	1098.351074	35689.480469	22926.068359	63.102066
536.385315	1097.727417	35053.160156	22443.275391	62.863426
536.733398	1093.404297	34230.691406	21831.351563	62.581905
537.081421	1097.963989	33336.515625	21181.335938	62.296135
537.429443	1098.781372	32512.695313	20583.347656	62.025276
537.777466	1099.964233	31796.349609	20064.269531	61.780254
538.125427	1099.491089	31195.392578	19628.197266	61.565548
538.473267	1100.652466	30718.154297	19279.572266	61.378979
538.821167	1096.157349	30342.189453	18969.275391	61.112965
539.169006	1093.490356	30042.281250	18703.781250	60.832561
539.516846	1095.404541	29785.906250	18484.527344	60.609337
539.864502	1094.393677	29725.533203	18372.470703	60.347149
540.212219	1093.597778	29960.894531	18439.123047	60.087112
540.559875	1096.415527	30618.244141	18772.542969	59.874771
540.907410	1095.189453	31609.419922	19298.308594	59.654526
541.254944	1091.812866	32749.218750	19915.220703	59.459728
541.602478	1088.629517	33840.988281	20499.853516	59.266644
541.949951	1091.081543	34812.960938	21021.271484	59.101658
542.297363	1090.995483	35665.558594	21449.820313	58.883823
542.644714	1090.952393	36393.113281	21815.304688	58.705620
542.992126	1094.909912	36898.488281	22054.152344	58.539516
543.339355	1094.909912	37133.890625	22128.333984	58.362984
543.686646	1095.641113	36962.300781	21959.667969	58.171089
544.033813	1096.028320	36350.503906	21537.548828	57.982761
544.380920	1098.544800	35273.101563	20840.042969	57.766651
544.728027	1098.157593	33893.148438	19970.388672	57.546074
545.075134	1099.577026	32485.080078	19076.642578	57.278248
545.422180	1102.609741	31191.500000	18269.832031	57.055019
545.769165	1100.136230	30101.513672	17567.595703	56.781647
546.116150	1101.512695	29163.873047	16967.820313	56.539463
546.463013	1103.620605	28333.876953	16436.357422	56.307720
546.809875	1101.147095	27652.351563	15994.778320	56.093990
547.156677	1100.222290	27041.158203	15593.244141	55.869308
547.503418	1099.340576	26523.564453	15256.943359	55.685486
547.850098	1099.555664	26053.443359	14942.687500	55.474854
548.196777	1099.060913	25603.150391	14643.362305	55.273636
548.543396	1099.684448	25154.019531	14355.434570	55.107529
548.890015	1099.921143	24654.173828	14034.621094	54.914501
549.236633	1099.577026	24106.105469	13681.628906	54.689049
549.583069	1099.383545	23500.394531	13304.593750	54.485085
549.929504	1100.953613	22837.970703	12908.352539	54.319313
550.275879	1100.846191	22184.296875	12502.711914	54.079693
550.622253	1102.136597	21534.345703	12103.563477	53.843552
550.968567	1102.953979	20971.779297	11751.821289	53.595856
551.314819	1105.255249	20489.205078	11451.589844	53.375786
551.661072	1104.029297	20128.861328	11226.788086	53.208138
552.007263	1102.029175	19904.488281	11061.670898	52.969891
552.353394	1103.190430	19757.716797	10946.496094	52.766308
552.699524	1104.480957	19663.253906	10851.839844	52.521572
553.045593	1102.373169	19617.462891	10793.917969	52.344032
553.391602	1104.631470	19596.880859	10753.547852	52.178162
553.737549	1101.168579	19576.876953	10705.369141	51.982849
554.083435	1101.770996	19533.453125	10654.459961	51.827553
554.429321	1103.706543	19478.607422	10584.107422	51.594296
554.775146	1101.942993	19381.414063	10497.817383	51.401237
555.120972	1101.018188	19274.023438	10407.354492	51.209667
555.466675	1102.115112	19112.755859	10284.995117	50.985859
555.812439	1104.222900	18910.880859	10151.624023	50.809093
556.158081	1103.556274	18680.765625	9992.980469	50.573582
556.503662	1102.824829	18449.339844	9847.627930	50.412445
556.849182	1104.739136	18225.054688	9699.545898	50.202381
557.194702	1103.061401	18018.554688	9555.484375	49.968525
557.540161	1104.588501	17818.185547	9425.727539	49.786640
557.885620	1104.330322	17654.017578	9312.143555	49.594975
558.231018	1102.050537	17501.242188	9212.625977	49.457165
558.576355	1100.265381	17381.789063	9128.529297	49.309044
558.921692	1102.115112	17289.044922	9053.789063	49.124039
559.266968	1101.985962	17192.560547	8988.984375	49.016266
559.612183	1100.007324	17111.517578	8918.674805	48.831543
559.957336	1100.157837	17059.187500	8863.377930	48.644688
560.302429	1099.211426	17023.355469	8820.554688	48.488277
560.647522	1098.673706	17005.095703	8789.475586	48.350292
560.992554	1097.211182	16996.341797	8761.322266	48.204594
561.337524	1097.168213	17005.804688	8735.362305	48.012878
561.682434	1095.275513	17022.130859	8715.188477	47.843174
562.027344	1095.662720	17028.236328	8692.518555	47.681286
562.372253	1099.039307	17038.152344	8675.655273	47.534740
562.717102	1099.189941	17022.064453	8651.609375	47.431255
563.061829	1097.813354	17045.335938	8628.790039	47.223488
563.406494	1096.974609	17039.208984	8607.389648	47.110180
563.751160	1093.253784	17025.033203	8583.192383	47.012566
564.095825	1093.963501	17028.648438	8568.845703	46.909508
564.440369	1093.060059	17044.304688	8550.995117	46.754566
564.784973	1095.146362	17087.515625	8549.747070	46.613483
565.129456	1094.329224	17191.763672	8572.288086	46.454353
565.473877	1093.705444	17318.017578	8614.186523	46.353157
565.818298	1091.167480	17494.449219	8679.204102	46.259262
566.162659	1090.801880	17690.904297	8745.964844	46.115158
566.507019	1087.661621	17885.035156	8815.478516	46.006104
566.851196	1090.844849	18033.029297	8867.872070	45.903336
567.195435	1090.930786	18181.650391	8920.696289	45.812969
567.539612	1094.350586	18281.232422	8951.173828	45.714069
567.883789	1093.038574	18350.337891	8956.250000	45.564556
568.227844	1094.350708	18373.931641	8949.388672	45.458500
568.571960	1094.243042	18368.382813	8931.601563	45.370468
568.915955	1094.888306	18297.125000	8887.939453	45.302547
569.259888	1096.587402	18214.556641	8830.405273	45.179531
569.603821	1099.405151	18094.542969	8756.417969	45.054134
569.947632	1099.426514	17961.880859	8695.227539	45.045639
570.291504	1100.544922	17867.480469	8631.391602	44.914867
570.635193	1097.146606	17825.111328	8604.334961	44.878075
570.979004	1099.275879	17849.824219	8591.108398	44.725891
571.322632	1100.695435	17954.826172	8618.273438	44.603771
571.666321	1101.190186	18077.617188	8662.558594	44.540398
572.009949	1102.072021	18221.482422	8718.994141	44.492901
572.353455	1102.566772	18347.908203	8768.010742	44.449360
572.696960	1101.254761	18457.728516	8810.166992	44.415195
573.040405	1099.146973	18533.201172	8845.160156	44.430359
573.383850	1098.587769	18599.574219	8866.839844	44.387508
573.727173	1099.297607	18644.417969	8870.647461	44.293507
574.070557	1099.577148	18657.710938	8865.464844	44.229576
574.413879	1100.953735	18657.667969	8853.850586	44.159157
574.757019	1099.813721	18610.478516	8834.041016	44.168671
575.100281	1097.447876	18509.691406	8785.949219	44.155720
575.443420	1097.125122	18375.201172	8719.553711	44.116188
575.786499	1094.458130	18211.888672	8633.866211	44.045212
576.129517	1091.361084	18045.138672	8549.961914	43.993740
576.472534	1090.909302	17876.083984	8463.113281	43.920929
576.815491	1091.296509	17689.091797	8364.951172	43.823017
577.158447	1090.221191	17486.445313	8268.529297	43.780251
577.501343	1090.049072	17278.958984	8162.861328	43.689243
577.844116	1089.167236	17046.132813	8054.912109	43.653320
578.187012	1089.769531	16777.798828	7928.466797	43.591820
578.529724	1090.479370	16485.935547	7786.319824	43.492317
578.872375	1090.285645	16187.790039	7644.345215	43.411545
579.215027	1092.199951	15902.677734	7511.554199	43.343330
579.557617	1093.834473	15631.097656	7387.904785	43.296116
579.900146	1097.426270	15371.777344	7265.093262	43.208035
580.242676	1098.200684	15135.146484	7154.972168	43.148785
580.585144	1098.372681	14925.915039	7051.647949	43.053749
580.927612	1099.964355	14731.781250	6965.120605	43.025494
581.269958	1099.598633	14558.878906	6882.959473	42.969318
581.612305	1099.770752	14418.152344	6820.350098	42.952507
581.954590	1099.125488	14297.750000	6764.815918	42.926369
582.296814	1099.512573	14190.812500	6717.176270	42.911427
582.639038	1100.200806	14103.037109	6674.224609	42.867756
582.981140	1099.340576	14021.628906	6632.715332	42.820396
583.323242	1099.512573	13931.920898	6596.215332	42.834538
583.665283	1098.265015	13851.415039	6558.490234	42.814716
584.007324	1100.028687	13781.985352	6525.926758	42.784389
584.349304	1102.007446	13709.204102	6494.869141	42.776058
584.691284	1102.308472	13636.271484	6461.209473	42.755039
585.033142	1102.351685	13574.391602	6438.023438	42.781067
585.374939	1104.566895	13519.954102	6413.460938	42.760601
585.716736	1107.836060	13466.011719	6388.383301	42.729183
586.058411	1106.567139	13411.962891	6367.391113	42.752174
586.400085	1110.137451	13364.902344	6348.765137	42.747684
586.741760	1109.212769	13321.413086	6334.698730	42.789063
587.083374	1109.234253	13313.434570	6329.257324	42.772346
587.424988	1108.954590	13301.734375	6325.729980	42.785778
587.766541	1107.018799	13296.334961	6327.601074	42.829163
588.107971	1106.717773	13323.178711	6338.204590	42.823261
588.449341	1105.964966	13351.696289	6354.077637	42.856670
588.790710	1102.932373	13396.068359	6373.735840	42.875992
589.132080	1100.415894	13431.727539	6389.028320	42.887672
589.473267	1097.619873	13485.625977	6408.514160	42.871262
589.814514	1098.308105	13539.355469	6428.774902	42.845806
590.155762	1094.866943	13599.190430	6447.659180	42.807529
590.496948	1095.662720	13625.881836	6461.660645	42.824455
590.838013	1093.791504	13636.012695	6466.586426	42.837669
591.179077	1093.425903	13644.377930	6471.339355	42.848652
591.520081	1093.124756	13635.905273	6466.542480	42.840725
591.861023	1092.909668	13604.050781	6451.831543	42.833199
592.201965	1094.049683	13567.380859	6433.700195	42.808537
592.542847	1094.350708	13520.362305	6407.654297	42.759525
592.883606	1094.350586	13474.616211	6387.543945	42.755089
593.224365	1093.812988	13432.461914	6373.414063	42.789135
593.565125	1095.038940	13414.565430	6367.692383	42.799156
593.905823	1093.662354	13405.166016	6370.896973	42.864254
594.246521	1093.640991	13429.277344	6373.413574	42.800972
594.587097	1095.813232	13479.755859	6388.232422	42.736141
594.927612	1095.060425	13530.147461	6407.051758	42.717766
595.268127	1098.501831	13617.537109	6440.561035	42.671494
595.608582	1096.738159	13737.702148	6497.880859	42.727299
595.948975	1097.361816	13919.186523	6576.083984	42.729664
596.289307	1097.921021	14138.355469	6679.945801	42.805511
596.629700	1097.920898	14373.543945	6787.142090	42.854645
596.969971	1098.695190	14583.634766	6881.669922	42.884689
597.310242	1095.791748	14748.256836	6953.270508	42.904182
597.650391	1097.017700	14833.452148	6990.973633	42.907467
597.990540	1098.157715	14878.662109	7013.492188	42.925385
598.330627	1096.910278	14868.209961	7015.362793	42.976719
598.670654	1098.071655	14827.321289	6998.372070	42.976131
599.010620	1096.802612	14715.005859	6961.658203	43.066296
599.350525	1097.211182	14560.815430	6891.541992	43.036999
599.690491	1095.447510	14334.487305	6794.326172	43.046013
600.030334	1095.963745	14053.934570	6674.762695	43.053028
600.370178	1098.437134	13753.231445	6541.348633	43.010670
600.710022	1097.920898	13462.032227	6409.632813	42.960724
601.049683	1100.523438	13202.603516	6299.812988	42.961948
601.389343	1100.222290	13015.827148	6222.426758	42.987366
601.728943	1098.458618	12878.240234	6167.086426	43.028202
602.068542	1099.340454	12808.490234	6137.448242	43.027103
602.408081	1099.555542	12813.306641	6139.212402	43.023422
602.747498	1096.587402	12897.833984	6175.281250	43.035233
603.087036	1097.426270	13028.324219	6233.589355	43.049255
603.426453	1096.200317	13228.691406	6315.320313	43.017712
603.765869	1096.049683	13460.613281	6415.633301	43.022816
604.105103	1095.404419	13732.733398	6541.198242	43.092918
604.444336	1095.038940	14025.156250	6670.224609	43.117828
604.783569	1092.694580	14310.224609	6789.701660	43.101902
605.122681	1093.339722	14537.800781	6885.240234	43.080196
605.461792	1093.898926	14714.596680	6964.734375	43.102314
605.800842	1091.619141	14821.641602	7009.255859	43.099979
606.139954	1091.188965	14841.731445	7024.289551	43.148117
606.478943	1092.458008	14791.166016	7000.308105	43.127060
606.817932	1092.909668	14669.818359	6956.023438	43.184456
607.156799	1096.307861	14492.224609	6888.101563	43.235516
607.495605	1098.050049	14283.812500	6795.422363	43.208515
607.834412	1097.770386	14040.190430	6687.345215	43.188019
608.173157	1099.641602	13796.268555	6582.471680	43.183361
608.511841	1100.394409	13598.674805	6502.504883	43.222828
608.850464	1098.394165	13492.187500	6450.304688	43.182186
609.189148	1099.856567	13428.931641	6421.419922	43.162716
609.527710	1100.674072	13402.199219	6415.053223	43.200974
609.866211	1099.684692	13397.660156	6412.429199	43.200157
610.204712	1098.544800	13401.832031	6409.998535	43.171013
610.543091	1097.619873	13421.490234	6409.030762	43.098564
610.881409	1095.705566	13409.467773	6400.492188	43.080147
611.219788	1093.963623	13372.667969	6383.845215	43.081760
611.558044	1093.812988	13309.347656	6354.594238	43.066319
611.896301	1091.705078	13199.097656	6309.513672	43.096054
612.234436	1092.737671	13027.894531	6235.654785	43.090485
612.572693	1094.694824	12793.499023	6140.373535	43.129864
612.910767	1094.221558	12539.918945	6030.145020	43.124706
613.248840	1094.178589	12277.156250	5914.754395	43.106369
613.586792	1096.888550	12025.425781	5803.708496	43.069077
613.924805	1098.695190	11788.512695	5707.094238	43.110176
614.262695	1099.727661	11571.411133	5616.846680	43.136513
614.600525	1101.254761	11383.238281	5537.632324	43.147099
614.938293	1102.953979	11231.972656	5473.775391	43.151478
615.276123	1103.040039	11102.236328	5412.907227	43.102135
615.613892	1100.824707	10995.621094	5364.643066	43.091518
615.951538	1099.362183	10904.834961	5318.895020	43.032425
616.289185	1099.835205	10831.686523	5289.408203	43.050114
616.626770	1097.641479	10767.162109	5265.297363	43.100956
616.964294	1097.727417	10728.683594	5240.198242	43.012039
617.301819	1096.781128	10697.540039	5225.056641	42.999470
617.639221	1097.619873	10677.108398	5215.441895	42.985828
617.976624	1097.211060	10657.708008	5209.226074	43.010475
618.313965	1096.243286	10649.468750	5202.451172	42.982426
618.651306	1096.028198	10634.735352	5193.073242	42.951786
618.988525	1094.178589	10620.928711	5193.589355	43.030525
619.325684	1097.297363	10602.753906	5185.760742	43.011749
619.662964	1099.921387	10589.075195	5182.190430	43.020367
620.000000	1099.813721	10570.235352	5171.371582	42.992359
620.337097	1098.974854	10547.738281	5158.337891	42.961842
620.674133	1097.942505	10512.743164	5151.175781	43.051716
621.011047	1097.017578	10483.148438	5138.808594	43.061310
621.347961	1096.092773	10448.735352	5119.988770	43.024162
621.684875	1094.737793	10412.816406	5103.685547	43.023335
622.021729	1095.813232	10378.791016	5088.866699	43.014793
622.358521	1095.684204	10344.764648	5077.316895	43.048962
622.695313	1097.103638	10306.308594	5061.509277	43.048294
623.031982	1096.824097	10284.176758	5050.325195	43.031994
623.368652	1095.296997	10261.485352	5037.334473	43.006290
623.705261	1095.963745	10251.548828	5036.151367	43.035889
624.041748	1097.469238	10251.785156	5034.280273	43.004971
624.378296	1099.340454	10255.355469	5034.774414	42.981956
624.714722	1099.426636	10275.638672	5041.226074	42.956715
625.051147	1101.190186	10313.256836	5057.658203	42.948757
625.387512	1100.501953	10365.477539	5083.726563	42.992283
625.723877	1098.609253	10452.929688	5117.236328	42.960117
626.060120	1099.770630	10549.522461	5157.477539	42.939827
626.396301	1098.716797	10676.248047	5206.128906	42.885918
626.732483	1099.362183	10795.445313	5259.081543	42.901028
627.068604	1102.287109	10906.147461	5313.819824	42.957901
627.404724	1102.631348	11006.245117	5361.288086	43.001041
627.740662	1102.609863	11092.771484	5395.292480	42.969097
628.076721	1104.029175	11155.273438	5420.370605	42.943352
628.412720	1104.889526	11191.256836	5436.050293	42.940739
628.748596	1103.620605	11195.687500	5436.501953	42.933540
629.084473	1105.943481	11178.266602	5420.973145	42.840462
629.420227	1107.277100	11111.333984	5397.744141	42.887272
629.755981	1106.911377	11027.991211	5359.073242	42.859871
630.091675	1108.180298	10910.987305	5312.873047	42.892746
630.427307	1110.503174	10777.874023	5260.135742	42.924107
630.762939	1106.266113	10644.050781	5197.891113	42.899109
631.098450	1105.362671	10515.711914	5135.689941	42.828667
631.434021	1104.781982	10400.235352	5089.942383	42.872147
631.769470	1103.685059	10291.620117	5040.947266	42.852524
632.104980	1102.846313	10191.930664	4999.243164	42.868973
632.440308	1102.029053	10108.780273	4964.593750	42.885216
632.775635	1101.813965	10030.147461	4935.579102	42.939312
633.110901	1099.211426	9979.409180	4910.134766	42.914848
633.446106	1098.480103	9941.985352	4896.326660	42.945038
633.781250	1099.641602	9918.605469	4879.572266	42.861393
634.116394	1099.232910	9898.128906	4867.549805	42.827152
634.451538	1102.158081	9885.289063	4863.505859	42.824680
634.786560	1102.867798	9865.500977	4853.009766	42.796978
635.121582	1102.502075	9830.788086	4835.868164	42.773190
635.456543	1102.308594	9802.785156	4825.156738	42.789013
635.791443	1103.534424	9758.627930	4805.649414	42.773830
636.126221	1104.502441	9707.848633	4787.109375	42.804359
636.461060	1105.190674	9659.993164	4764.525879	42.775215
636.795776	1107.190918	9596.716797	4739.598145	42.786930
637.130493	1105.943481	9518.750000	4699.636230	42.716930
637.465210	1103.878784	9428.092773	4666.255371	42.795349
637.799805	1102.028931	9344.297852	4630.121582	42.804874
638.134399	1101.233276	9254.458984	4589.966309	42.789604
638.468933	1101.254761	9165.372070	4553.983398	42.815952
638.803345	1101.125610	9083.641602	4517.075195	42.792896
639.137756	1100.050293	9002.297852	4483.265137	42.813324
639.472168	1100.394409	8935.709961	4452.809082	42.785954
639.806519	1100.007324	8868.152344	4420.095703	42.739784
640.140747	1096.695190	8796.789063	4388.500488	42.750195
640.474976	1094.071167	8722.736328	4360.174316	42.813560
640.809204	1094.759277	8651.587891	4333.763184	42.861946
641.143372	1095.899292	8599.172852	4309.802734	42.833351
641.477478	1095.770264	8539.037109	4281.455078	42.799553
641.811462	1095.469116	8489.138672	4259.151855	42.789074
642.145447	1096.630615	8438.615234	4236.869141	42.770977
642.479370	1098.974976	8393.835938	4220.501465	42.790760
642.813293	1100.846069	8347.163086	4201.982910	42.796040
643.147095	1100.846191	8300.597656	4184.475586	42.829666
643.480957	1101.039673	8259.368164	4170.150879	42.874691
643.814758	1104.373413	8223.168945	4159.913574	42.922150
644.148438	1105.362793	8195.423828	4143.244629	42.847046
644.482117	1105.986450	8168.646973	4138.190430	42.932888
644.815735	1103.061401	8131.695801	4122.230957	42.955280
645.149292	1102.717163	8109.973145	4114.853516	42.985962
645.482788	1101.899902	8092.078125	4110.358398	43.038364
645.816223	1099.942749	8076.871582	4105.066895	43.072304
646.149658	1099.706177	8067.816895	4101.884277	43.084538
646.483032	1100.502075	8075.860840	4104.530273	43.066292
646.816345	1100.093384	8077.473633	4105.089355	43.067684
647.149658	1098.200684	8077.538574	4107.003418	43.110146
647.482849	1096.200317	8084.291992	4102.099609	43.014595
647.816101	1096.824097	8078.957520	4105.648438	43.093193
648.149231	1098.308105	8086.378418	4102.766602	42.994106
648.482239	1100.523560	8096.530762	4109.605957	43.011425
648.815247	1100.953613	8095.196777	4111.305176	43.040421
649.148254	1099.426636	8089.260742	4108.187012	43.044804
649.481201	1100.222412	8077.538574	4110.057617	43.137432
649.814087	1101.082764	8073.194824	4109.929199	43.155449
650.146973	1098.630859	8060.848633	4102.572754	43.146336
650.479736	1098.931885	8054.697266	4100.572754	43.153278
650.812500	1101.921509	8054.976563	4101.884766	43.145973
651.145203	1101.104248	8043.039551	4103.089355	43.244209
651.477844	1100.803101	8051.212402	4097.970703	43.122173
651.810486	1097.705933	8047.298340	4095.905518	43.142094
652.143005	1096.716675	8036.156250	4088.743164	43.116253
652.475525	1096.716675	8036.543457	4087.388428	43.094330
652.807922	1097.426392	8025.961426	4086.441650	43.140652
653.140381	1097.168213	8024.478027	4077.236084	43.019123
653.472717	1095.383057	7998.733887	4064.847656	43.014832
653.805115	1095.727173	7972.062988	4053.965088	43.020554
654.137390	1093.770020	7941.564453	4044.415527	43.088989
654.469543	1093.296753	7907.625000	4026.198242	43.040215
654.801758	1095.619629	7876.094238	4012.906006	43.024811
655.133850	1096.867065	7834.734375	3999.032715	43.072464
655.465881	1097.490723	7790.793457	3988.708740	43.195686
655.797974	1099.082397	7760.961426	3981.332031	43.264812
656.129944	1099.921143	7724.742188	3970.363037	43.328594
656.461853	1098.114502	7702.911133	3963.415527	43.382122
656.793762	1096.974487	7684.500000	3957.006348	43.415874
657.125610	1097.189575	7687.489258	3963.867188	43.498444
657.457397	1096.845581	7706.740234	3974.836670	43.540653
657.789124	1098.265137	7744.443359	3992.602295	43.548893
658.120789	1096.652100	7805.526367	4021.057129	43.590103
658.452393	1095.963867	7895.795410	4057.965088	43.559921
658.783997	1096.393921	8007.443848	4114.037109	43.664032
659.115540	1099.706177	8137.502930	4168.624023	43.606232
659.447083	1099.082520	8251.990234	4220.114258	43.633049
659.778503	1097.383301	8362.735352	4265.775391	43.609615
660.109924	1099.276001	8457.262695	4307.608887	43.603409
660.441284	1099.770630	8524.668945	4339.849609	43.638027
660.772522	1100.394287	8568.072266	4353.571777	43.563442
661.103760	1101.082520	8577.277344	4365.465820	43.663700
661.434998	1102.028809	8569.641602	4358.045410	43.601841
661.766113	1104.007690	8515.679688	4338.451660	43.639870
662.097229	1104.029419	8421.323242	4302.619141	43.712742
662.428345	1104.717651	8297.867188	4246.289551	43.674496
662.759277	1102.179565	8148.234863	4183.529297	43.731556
663.090332	1102.609741	8003.937988	4121.479004	43.743305
663.421204	1101.942993	7856.973145	4062.138184	43.822086
663.752075	1102.846313	7713.859375	3999.226807	43.811443
664.082886	1102.867798	7589.284668	3948.209473	43.866158
664.413635	1100.889160	7478.367676	3903.881836	43.951424
664.744324	1099.233032	7379.688965	3856.864990	43.908146
665.075012	1097.899536	7287.720215	3820.452148	43.984356
665.405640	1097.963989	7214.679199	3787.996094	43.978378
665.736206	1098.394165	7161.597168	3764.165039	43.966381
666.066772	1095.727051	7110.623047	3745.711182	44.057022
666.397278	1096.867065	7076.941895	3727.752197	43.994186
666.727661	1095.555054	7038.851074	3714.395996	44.063782
667.058044	1097.469238	7009.146973	3708.717773	44.171024
667.388306	1097.512329	6988.822266	3700.652100	44.186092
667.718567	1098.673828	6970.820313	3696.436768	44.238728
668.048828	1099.899780	6964.669922	3691.833740	44.194981
668.378967	1102.889404	6962.884277	3693.984619	44.216679
668.709167	1103.921875	6958.732910	3695.985107	44.272362
669.039246	1101.878540	6962.690918	3697.533447	44.288311
669.369263	1102.416260	6956.776367	3701.297607	44.392235
669.699341	1104.846558	6948.473633	3699.748535	44.405674
670.029236	1105.083130	6938.924805	3697.769775	44.442181
670.359131	1107.147827	6934.085449	3691.662354	44.354595
670.688965	1106.502686	6921.546875	3676.928955	44.203041
671.018738	1105.384277	6902.124512	3668.196289	44.211262
671.348511	1103.878662	6880.379883	3657.915527	44.214256
671.678223	1104.308716	6849.687500	3649.011475	44.291294
672.007813	1102.867676	6814.112793	3634.751465	44.331554
672.337341	1100.157715	6783.227051	3619.653076	44.333355
672.666992	1102.201050	6750.986328	3601.628906	44.247173
672.996460	1102.115112	6716.401855	3581.970459	44.170448
673.325867	1100.673950	6688.054199	3569.173340	44.179909
673.655273	1097.275635	6651.426270	3555.020996	44.250610
673.984619	1095.382935	6617.271484	3537.599854	44.227924
674.314026	1096.415283	6586.729492	3527.447754	44.278564
674.643250	1098.243652	6561.845215	3513.854736	44.212799
674.972412	1098.802856	6540.853516	3499.315674	44.110443
675.301514	1098.243652	6515.022949	3487.077393	44.100628
675.630676	1097.404663	6495.687012	3476.645996	44.074043
675.959778	1100.243774	6470.328125	3466.407959	44.061951
676.288757	1099.189941	6442.131348	3458.750732	44.162205
676.617737	1098.265137	6422.817383	3450.169434	44.170933
676.946594	1098.566284	6406.148438	3438.834961	44.092934
677.275513	1100.673950	6395.158203	3435.629883	44.101669
677.604309	1101.899902	6392.383301	3434.231934	44.085423
677.933044	1100.781494	6398.320313	3431.393066	43.994232
678.261780	1100.803101	6410.879883	3436.361084	43.983509
678.590393	1099.340576	6432.216797	3445.803223	43.999947
678.919067	1101.254761	6468.823242	3459.955566	43.943562
679.247620	1100.523315	6513.860840	3472.882080	43.824329
679.576111	1099.125366	6559.737305	3495.400635	43.882912
679.904541	1098.179077	6620.088867	3518.328125	43.828114
680.232971	1098.006958	6676.332520	3542.008789	43.812466
680.561401	1097.490845	6732.962891	3567.130371	43.823120
680.889709	1097.082153	6787.829590	3584.444336	43.708885
681.217957	1096.350830	6834.244141	3601.736572	43.663860
681.546143	1094.006470	6873.323730	3626.040771	43.811993
681.874390	1095.318481	6900.359375	3637.547119	43.793465
682.202454	1096.393799	6914.985840	3646.860352	43.833054
682.530579	1096.157227	6905.263672	3641.462402	43.815777
682.858521	1099.017700	6874.012695	3633.933838	43.894688
683.186523	1099.426514	6833.169922	3614.297119	43.860886
683.514465	1099.641602	6772.193848	3589.197021	43.887749
683.842346	1100.157715	6708.701660	3558.935791	43.839863
684.170166	1101.727905	6635.251465	3527.641357	43.840305
684.497925	1100.673950	6558.102051	3497.465088	43.917957
684.825623	1100.609375	6474.780762	3464.945313	43.994427
685.153320	1103.814087	6395.049805	3424.961914	43.867786
685.481018	1100.932007	6318.846680	3395.022705	43.965664
685.808533	1097.920898	6247.827637	3361.126465	43.946533
686.136047	1096.910034	6188.508301	3336.563477	43.987236
686.463623	1094.716309	6143.836426	3316.066650	43.994801
686.791016	1093.898926	6115.273438	3302.086670	43.975761
687.118408	1093.038696	6102.132324	3289.010010	43.839691
687.445740	1093.705566	6096.776855	3285.955566	43.818085
687.772949	1094.221558	6093.271484	3282.213135	43.768150
688.100220	1095.705688	6093.701660	3275.803955	43.619446
688.427429	1093.985107	6090.109375	3272.297607	43.600048
688.754517	1094.995972	6091.464355	3269.135986	43.513538
689.081604	1098.157593	6083.226563	3260.188965	43.370140
689.408630	1102.158203	6065.138672	3250.811523	43.293610
689.735657	1102.394653	6042.167480	3239.627197	43.265804
690.062622	1104.502441	6012.873535	3222.463867	43.149986
690.389465	1104.244385	5970.202637	3202.095459	43.112808
690.716248	1105.685425	5911.765137	3184.200928	43.247631
691.043091	1103.599121	5852.058105	3156.433838	43.231598
691.369812	1101.125732	5789.728027	3127.247559	43.213768
691.696533	1100.910645	5724.429688	3102.448975	43.290367
692.023132	1104.050781	5671.025391	3076.187500	43.182564
692.349670	1102.287109	5605.705078	3047.839844	43.201691
692.676270	1101.039673	5552.150391	3024.159424	43.205387
693.002747	1098.523315	5502.918457	3002.629883	43.231968
693.329163	1099.146973	5454.503906	2978.110840	43.141445
693.655518	1098.566284	5414.843262	2963.463867	43.206161
693.981873	1098.286743	5380.150879	2945.418701	43.138500
694.308167	1097.318726	5352.255371	2928.965088	43.047562
694.634399	1099.340576	5318.573730	2914.575928	43.022873
694.960571	1100.588013	5295.774902	2904.531982	43.000324
695.286743	1100.222412	5279.320801	2898.746094	43.036163
695.612854	1098.652222	5266.910645	2892.853027	43.044376
695.938904	1098.630737	5266.072266	2894.724121	43.098228
696.264832	1098.845825	5277.858887	2898.638916	43.067417
696.590820	1100.846191	5295.279785	2908.854980	43.104958
696.916687	1100.394409	5332.553223	2927.244141	43.165909
697.242554	1100.114868	5381.053711	2942.471680	43.036278
697.568359	1099.856689	5452.417480	2973.572510	43.048588
697.894043	1100.738525	5550.967285	3015.276611	43.021118
698.219788	1099.534058	5673.821777	3069.864258	43.074036
698.545349	1101.792358	5811.623535	3126.709961	42.993423
698.870972	1102.136597	5945.833984	3179.232178	42.882442
699.196533	1102.846313	6066.235840	3233.927490	42.936001
699.521973	1101.211670	6169.517578	3274.276611	42.875568
699.847412	1101.125488	6241.720215	3302.903809	42.831200
700.172852	1103.534424	6290.349609	3320.820068	42.748497
700.498169	1104.201172	6309.813965	3325.767090	42.676357
700.823486	1103.749512	6299.876953	3323.680664	42.722801
701.148682	1104.244263	6248.881348	3300.624268	42.692608
701.473816	1103.663574	6161.343750	3262.232178	42.679024
701.799072	1104.351685	6041.027832	3205.493896	42.561878
702.124146	1100.867554	5895.203125	3138.883545	42.508831
702.449158	1100.544922	5739.484863	3072.294678	42.504318
702.774109	1103.018433	5585.810059	3005.361572	42.436573
703.099060	1102.674316	5439.813965	2942.450684	42.419117
703.424011	1102.502197	5303.388672	2886.895264	42.476582
703.748840	1100.630981	5186.169434	2834.759766	42.445538
704.073608	1099.426514	5079.683105	2789.678955	42.465916
704.398315	1100.846069	4983.585449	2750.749512	42.493286
704.723022	1103.513062	4910.414551	2713.777100	42.298550
705.047668	1101.942993	4846.686523	2684.504883	42.260887
705.372253	1101.770996	4791.173828	2658.480225	42.194069
705.696716	1102.953857	4744.007324	2641.445557	42.254028
706.021240	1102.674316	4704.539551	2625.250244	42.271873
706.345764	1097.641357	4671.353027	2610.775146	42.340679
706.670044	1099.942749	4651.285645	2602.301025	42.303951
706.994446	1097.189697	4638.187500	2592.063232	42.216167
707.318665	1095.318604	4627.347168	2590.170410	42.322754
707.642883	1094.587158	4623.282227	2586.686035	42.284721
707.967102	1093.038574	4619.604980	2583.223389	42.255970
708.291260	1092.113770	4615.281250	2587.611084	42.447521
708.615295	1095.447510	4613.969727	2587.180908	42.396587
708.939331	1096.630493	4619.562012	2594.343262	42.513252
709.263367	1096.415527	4626.874512	2598.365234	42.542618
709.587280	1097.641479	4638.832520	2606.000244	42.594673
709.911194	1098.888794	4662.556152	2613.312988	42.496227
710.234985	1098.071533	4684.344238	2619.743896	42.430470
710.558716	1101.104248	4710.605469	2633.960693	42.467266
710.882568	1104.373413	4740.694824	2643.015869	42.313160
711.206177	1105.212158	4770.397949	2657.081787	42.340816
711.529785	1105.319702	4803.110840	2669.169434	42.291458
711.853394	1104.459351	4831.093262	2676.718750	42.189800
712.176880	1103.857178	4846.105469	2686.806152	42.299412
712.500427	1102.394653	4857.935059	2689.731201	42.266525
712.823792	1100.458984	4866.709961	2689.903320	42.202293
713.147217	1100.351440	4868.839355	2687.988770	42.129295
713.470520	1099.878052	4855.547363	2678.869629	42.042881
713.793823	1100.437378	4835.544922	2669.556641	42.010017
714.117004	1100.523438	4811.112305	2656.931396	41.945038
714.440247	1098.200684	4783.754395	2644.155762	41.946346
714.763367	1098.415771	4748.201172	2626.411377	41.865356
715.086365	1097.232788	4712.841797	2613.850830	41.946407
715.409485	1096.781128	4687.011230	2601.655762	41.915829
715.732361	1097.275879	4667.696777	2588.277588	41.759830
716.055298	1097.405029	4649.586426	2579.158203	41.713894
716.378174	1100.308472	4628.573242	2570.812744	41.677834
716.700928	1100.760132	4606.527832	2563.844238	41.733631
717.023804	1101.340820	4585.686035	2557.864990	41.801949
717.346558	1101.728027	4558.823242	2548.874756	41.860191
717.669189	1098.609253	4527.421387	2540.164063	42.042400
717.991760	1097.469238	4488.470215	2525.130127	42.101460
718.314392	1096.587402	4450.594238	2510.160645	42.145805
718.636902	1099.577026	4408.395508	2489.211914	41.997921
718.959351	1100.157715	4350.775391	2466.305664	42.027332
719.281738	1098.566284	4297.457031	2445.206543	42.097103
719.604065	1098.781250	4234.267090	2421.461182	42.184212
719.926453	1097.727417	4175.249023	2399.501709	42.299438
720.248718	1095.963745	4124.210449	2375.842773	42.264690
720.570923	1096.028198	4073.709229	2352.291504	42.189316
720.893066	1093.705322	4031.316406	2333.084717	42.190044
721.215088	1096.178833	3985.740723	2311.060547	42.043800
721.537170	1098.501709	3947.241943	2296.864990	42.066429
721.859192	1100.587891	3913.947754	2281.013672	41.957867
722.181152	1099.103882	3881.728271	2270.001709	42.078903
722.503052	1100.480469	3859.360107	2261.054443	42.066856
722.824951	1102.652832	3835.615479	2252.408203	42.069927
723.146790	1103.190552	3823.097412	2245.461182	41.996685
723.468506	1104.330444	3809.010010	2237.718262	41.904697
723.790161	1104.480957	3791.265625	2229.781494	41.882797
724.111816	1107.599609	3779.392822	2225.501465	41.840881
724.433472	1109.083618	3764.789063	2221.092285	41.872437
724.755005	1108.933105	3761.132813	2222.167725	41.974010
725.076477	1107.642578	3755.927979	2219.758789	41.993820
725.397888	1106.309082	3752.292969	2220.576416	42.111645
725.719299	1106.760864	3754.831055	2219.672852	42.027283
726.040710	1105.642456	3757.368652	2222.490479	42.117775
726.361938	1102.781738	3763.111572	2224.189697	42.152966
726.683167	1101.319336	3769.628174	2227.050293	42.188931
727.004395	1098.523315	3782.791260	2232.362793	42.240173
727.325500	1098.888916	3802.943848	2242.235107	42.282654
727.646667	1097.361816	3818.666504	2251.935059	42.427197
727.967651	1096.738037	3837.765625	2262.323242	42.523659
728.288635	1095.533569	3854.434570	2269.915771	42.567032
728.609558	1096.609009	3870.242920	2277.981201	42.592941
728.930481	1097.748901	3888.051514	2287.595215	42.642193
729.251282	1097.533813	3895.902100	2292.004395	42.684540
729.572021	1097.856567	3901.946045	2295.747070	42.719414
729.892761	1101.147217	3904.398193	2297.553711	42.679249
730.213440	1103.082886	3907.000244	2301.833740	42.752716
730.534119	1103.125854	3909.043701	2304.522217	42.816517
730.854675	1105.298340	3910.914795	2304.135010	42.729885
731.175171	1103.986328	3916.764893	2307.103271	42.773254
731.495605	1106.180176	3921.561035	2308.070801	42.690163
731.816101	1105.470215	3924.852295	2309.619385	42.709682
732.136475	1105.083130	3927.583008	2312.093018	42.763859
732.456787	1101.405273	3927.024170	2313.469482	42.895531
732.777039	1100.803101	3935.347900	2323.019287	43.118603
733.097229	1101.018066	3941.176758	2323.771729	43.052299
733.417480	1098.867310	3944.983398	2329.105469	43.225155
733.737549	1097.125122	3943.112305	2328.266846	43.258862
734.057617	1098.179077	3932.616455	2326.524902	43.336494
734.377563	1095.189331	3911.086670	2321.857422	43.562244
734.697510	1096.071289	3878.867432	2312.931885	43.727982
735.017517	1093.770020	3843.358398	2302.715332	43.968227
735.337341	1093.189331	3805.761963	2288.885742	44.079792
735.657166	1093.683960	3767.800537	2272.668457	44.088745
735.976868	1096.243286	3729.903076	2257.613037	44.097183
736.296631	1096.479980	3685.919434	2236.987061	44.044556
736.616272	1096.609009	3646.989746	2227.845947	44.355610
736.935852	1094.200195	3613.695068	2211.779297	44.357269
737.255371	1092.995728	3579.648193	2199.648682	44.503727
737.574829	1092.716187	3553.386719	2187.754883	44.501640
737.894348	1093.167847	3539.879150	2180.743164	44.450493
738.213745	1090.952515	3535.707031	2177.732178	44.453533
738.533081	1090.780396	3536.954102	2176.893555	44.400490
738.852356	1092.436523	3542.008545	2178.312988	44.329231
739.171570	1091.425659	3550.095947	2182.249023	44.366394
739.490784	1090.414673	3554.031982	2186.163574	44.477238
739.809937	1089.769409	3559.795898	2190.486572	44.562973
740.129028	1086.263550	3556.870850	2188.486328	44.613434
740.447998	1089.360840	3549.062744	2189.669434	44.733414
740.767029	1089.791016	3542.073242	2189.626221	44.849453
741.085999	1090.866333	3529.534180	2189.239258	45.039871
741.404846	1093.941895	3505.854004	2181.345459	45.084709
741.723633	1096.566040	3479.054688	2175.022461	45.265961
742.042358	1097.619995	3447.330566	2162.418701	45.316166
742.361145	1098.308105	3413.713379	2150.309570	45.434875
742.679810	1098.630737	3378.698242	2138.910400	45.624954
742.998413	1098.071411	3342.435303	2124.048096	45.713474
743.316956	1096.544434	3307.721191	2109.680664	45.818871
743.635498	1100.953491	3277.159180	2096.259521	45.735847
743.953979	1099.835205	3247.563477	2083.010742	45.777466
744.272400	1103.276489	3222.377930	2071.439453	45.687428
744.590698	1101.018066	3197.170166	2062.685791	45.877766
744.909058	1098.652222	3172.715576	2056.125732	46.164139
745.227356	1099.361938	3152.347656	2048.103271	46.212757
745.545471	1099.835083	3136.452881	2046.360962	46.475380
745.863586	1101.706299	3118.794678	2040.166748	46.525501
746.181702	1101.835449	3099.072021	2035.757446	46.760712
746.499756	1105.083130	3085.199463	2036.574707	47.042267
746.817810	1108.782593	3073.305420	2035.908203	47.193424
747.135742	1106.696411	3063.347412	2037.542847	47.573452
747.453613	1107.449097	3057.948975	2041.994995	47.913147
747.771423	1105.448730	3051.646729	2046.317993	48.343964
748.089233	1108.997559	3048.893799	2049.135498	48.463310
748.406982	1110.008545	3053.905273	2056.986084	48.715424
748.724609	1109.685913	3058.378906	2061.524170	48.844955
749.042236	1107.018799	3059.346924	2067.180908	49.180367
749.359863	1104.480957	3064.616455	2075.267822	49.526520
749.677429	1103.362427	3072.724854	2081.763428	49.681103
749.994873	1101.577393	3079.026611	2085.613037	49.762878
750.312256	1100.243896	3083.586182	2092.474365	50.028202
750.629639	1103.491699	3088.361084	2100.367676	50.223759
750.946960	1104.222900	3091.178711	2106.906250	50.463295
751.264282	1104.782104	3090.511719	2116.799805	50.964527
751.581482	1103.943237	3088.726563	2122.843750	51.335606
751.898621	1101.728027	3083.779785	2126.435547	51.699333
752.215698	1100.243774	3078.725586	2134.307617	52.265522
752.532715	1102.738770	3077.456787	2140.781494	52.566631
752.849792	1101.534424	3074.101318	2149.857910	53.145142
753.166748	1101.620483	3069.283447	2154.245361	53.496197
753.483643	1101.469849	3068.767090	2162.095947	53.912853
753.800476	1100.501953	3066.680664	2171.021729	54.446716
754.117310	1095.877808	3065.132568	2178.785889	54.990757
754.434082	1092.780518	3060.593994	2189.862549	55.751324
754.750732	1091.791138	3060.551025	2196.766602	56.125458
755.067383	1092.264404	3061.110352	2206.509766	56.593830
755.383911	1093.511963	3057.410889	2215.457275	57.128464
755.700562	1093.425903	3055.905273	2220.447510	57.428455
756.016968	1093.382935	3049.216309	2224.727539	57.844631
756.333435	1095.490601	3043.925537	2233.739258	58.418613
756.649780	1097.447754	3042.161621	2244.923584	59.004868
756.966064	1096.996094	3042.914795	2259.118896	59.721035
757.282410	1097.017578	3046.441650	2272.690186	60.308716
757.598633	1096.630493	3049.990723	2285.788574	60.877563
757.914795	1100.329956	3059.734131	2297.273682	61.087128
758.230896	1099.577148	3072.273438	2312.566162	61.488888
758.546936	1096.673706	3082.403320	2329.729492	62.095856
758.862976	1095.146606	3093.996094	2348.764160	62.716957
759.178894	1094.221558	3103.352295	2370.465820	63.522209
759.494812	1095.296997	3115.203125	2392.360840	64.214066
759.810669	1094.931274	3124.688232	2408.384277	64.709869
760.126526	1094.027832	3134.172852	2428.171875	65.394569
760.442261	1093.662354	3138.109131	2443.528564	66.025986
760.757935	1092.414917	3141.571777	2457.035645	66.594261
761.073608	1095.877808	3145.593750	2473.231201	67.197289
761.389160	1094.006592	3143.851563	2484.178711	67.818405
761.704712	1095.576538	3141.012451	2497.685791	68.548187
762.020203	1098.351074	3145.658447	2512.139160	69.055977
762.335571	1100.458862	3166.349365	2533.131104	69.348892
762.650940	1102.394653	3207.171631	2574.383545	69.935631
762.966370	1100.329956	3283.697021	2642.219971	70.619820
763.281677	1100.867676	3390.075928	2729.413818	71.140152
763.596863	1098.243652	3507.316162	2823.962891	71.634178
763.911987	1100.415894	3602.295898	2909.242432	72.298698
764.227112	1102.867798	3678.735352	2979.638184	72.859734
764.542236	1103.319458	3740.076416	3032.698486	73.172432
764.857178	1103.685059	3780.877441	3075.069580	73.636269
765.172119	1102.609863	3804.622070	3102.664063	74.020920
765.487061	1099.082397	3818.322754	3121.827881	74.386421
765.801880	1095.899292	3806.385742	3128.409424	74.986916
766.116760	1094.608643	3769.692871	3108.406494	75.279793
766.431458	1094.243042	3686.671875	3058.658691	75.775108
766.746155	1093.124634	3573.044678	2988.435059	76.426277
767.060791	1095.296997	3442.340576	2902.790039	77.011482
767.375427	1094.716309	3328.520264	2819.575439	77.216225
767.689941	1093.232300	3229.862549	2750.383789	77.559113
768.004395	1090.027466	3144.906006	2695.817871	78.145279
768.318848	1087.769165	3074.574463	2649.553955	78.607841
768.633179	1088.134888	3014.631836	2610.366211	79.015503
768.947632	1090.457764	2957.291260	2575.717041	79.560349
769.261841	1091.188965	2908.618408	2546.208008	80.059174
769.576111	1091.877197	2861.257813	2518.527100	80.629906
769.890259	1093.038818	2827.167725	2495.406006	80.868683
770.204285	1094.501221	2789.485596	2471.230713	81.223724
770.518433	1092.630127	2756.814697	2453.099609	81.749916
770.832458	1091.081543	2725.714111	2435.592041	82.251541
771.146362	1090.844849	2697.301758	2419.934082	82.734200
771.460205	1091.619263	2670.524170	2403.179443	83.067711
771.774109	1093.490356	2651.468262	2389.457275	83.182625
772.087952	1094.608765	2632.154053	2376.186768	83.352211
772.401672	1094.888550	2615.657227	2366.615723	83.623970
772.715332	1098.071411	2602.666504	2355.539307	83.575172
773.028992	1098.630737	2589.718506	2348.032959	83.791328
773.342590	1098.049927	2572.082031	2338.052979	84.123207
773.656128	1097.103638	2557.994385	2327.363525	84.212997
773.969604	1099.555664	2543.970947	2316.931885	84.281593
774.283020	1100.200928	2532.851563	2310.286133	84.464783
774.596375	1099.577148	2521.043701	2304.543701	84.769249
774.909729	1100.695557	2507.816162	2300.198975	85.245247
775.223022	1101.900024	2492.523926	2295.940430	85.863647
775.536194	1105.836060	2481.941895	2292.886230	86.261543
775.849304	1105.857544	2466.456055	2285.659668	86.711998
776.162476	1104.674561	2453.142822	2282.003174	87.308586
776.475525	1104.739014	2438.840088	2276.518555	87.832893
776.788513	1105.427246	2430.839111	2271.636475	87.988441
777.101440	1103.857178	2424.859863	2268.259521	88.145340
777.414307	1102.502075	2417.826660	2265.054932	88.385246
777.727173	1100.566406	2414.213379	2260.430664	88.293449
778.039978	1102.781738	2408.384521	2260.172607	88.648010
778.352722	1101.211792	2403.846191	2256.215088	88.666725
778.665405	1098.566284	2402.491455	2252.257568	88.478333
778.977966	1092.823608	2397.759521	2252.279053	88.851524
779.290649	1092.436401	2399.566162	2251.719727	88.689232
779.603149	1092.156860	2396.124756	2250.020508	88.795410
779.915588	1090.328613	2397.006836	2247.267578	88.540466
780.227966	1090.199585	2391.801514	2246.364258	88.826286
780.540405	1090.048950	2385.219971	2245.977539	89.249107
780.852722	1088.307007	2382.596191	2243.439209	89.248383
781.164917	1089.554321	2373.412354	2241.460449	89.722237
781.477173	1089.876953	2365.260742	2233.932617	89.702858
781.789246	1090.737305	2355.926270	2226.039307	89.733788
782.101379	1091.360962	2343.107666	2223.673584	90.458603
782.413452	1092.500977	2335.429199	2215.822998	90.377060
782.725403	1091.683716	2324.244873	2207.864990	90.557884
783.037292	1092.586914	2315.189941	2199.993164	90.577744
783.349182	1094.264648	2301.854980	2192.594238	90.952171
783.661072	1094.049561	2294.843262	2183.668213	90.741539
783.972839	1094.845337	2286.003662	2175.559814	90.728027
784.284546	1096.609009	2271.679443	2167.429932	91.128235
784.596191	1097.211182	2261.699463	2161.450439	91.391151
784.907898	1095.383057	2254.236084	2156.697266	91.583160
785.219421	1096.652100	2247.138428	2153.664551	91.875275
785.530884	1095.189453	2243.331787	2146.201416	91.540215
785.842346	1094.737793	2236.341553	2138.135742	91.397560
786.153748	1096.479858	2227.588135	2136.737549	91.968002
786.465149	1096.845581	2220.232178	2131.962891	92.142570
786.776428	1098.093018	2214.403320	2131.704834	92.591805
787.087646	1100.114746	2210.489014	2132.414795	92.968658
787.398804	1100.028809	2215.650879	2138.652100	93.098129
787.709961	1101.448242	2228.491211	2150.804443	93.107025
788.021057	1103.448486	2243.998535	2164.591064	93.037788
788.332031	1105.255127	2260.581299	2179.496094	92.981621
788.643005	1103.792725	2278.411377	2195.433350	92.935745
788.953918	1105.513306	2290.907715	2207.929443	92.999947
789.264832	1108.137329	2298.671875	2218.446777	93.261421
789.575623	1107.040527	2307.898926	2225.974854	93.177872
789.886353	1104.803589	2315.555664	2232.040039	93.102173
790.197083	1102.480835	2321.470459	2233.846680	92.811768
790.507690	1098.695313	2320.459473	2232.749756	92.821060
790.818359	1099.792236	2312.114258	2225.759766	92.876938
791.128845	1098.394287	2292.391357	2210.230713	93.118858
791.439331	1097.297363	2270.732666	2194.250244	93.482178
791.749756	1095.619629	2247.246338	2170.462646	93.332588
792.060120	1096.092896	2224.662842	2148.868164	93.284004
792.370483	1097.361694	2201.928711	2128.198975	93.325012
792.680786	1093.597778	2184.206055	2110.842285	93.273132
792.990967	1093.619263	2169.795898	2096.732910	93.210876
793.301086	1095.189453	2154.396240	2082.666748	93.227997
793.611267	1093.275269	2141.577393	2071.611328	93.325775
793.921326	1095.254028	2130.070557	2063.718018	93.587990
794.231323	1095.834839	2122.757568	2055.674072	93.467522
794.541260	1097.576782	2120.929443	2053.652344	93.425812
794.851074	1098.308105	2121.144287	2052.383545	93.277443
795.161011	1099.297607	2123.252197	2056.211914	93.452805
795.470764	1099.512573	2126.284912	2062.427734	93.780785
795.780518	1099.598755	2132.049072	2071.912598	94.175362
796.090149	1102.050659	2141.147217	2082.967773	94.400955
796.399780	1099.663208	2146.158447	2090.259033	94.658417
796.709412	1098.458618	2155.600586	2097.507324	94.504684
797.018860	1099.512573	2160.504395	2104.626709	94.733452
797.328308	1100.222412	2166.117920	2107.508545	94.501396
797.637756	1098.953369	2165.515625	2111.229492	94.910179
797.947205	1098.738403	2166.655518	2112.971680	94.973030
798.256470	1097.942505	2161.364502	2109.981689	95.168167
798.565674	1098.243652	2157.278076	2105.809082	95.140007
798.874817	1099.125488	2148.309082	2093.528320	94.778725
799.183960	1098.501831	2141.921387	2084.344482	94.481903
799.493103	1098.480225	2131.447021	2073.612061	94.401085
799.802124	1101.749512	2121.531494	2058.878906	93.856277
800.111084	1102.265503	2105.830811	2050.254150	94.462082
800.419983	1103.319458	2098.023438	2039.607422	94.127296
800.728821	1102.846313	2086.774658	2030.810669	94.312187
801.037659	1104.997070	2080.709473	2022.422607	94.026222
801.346436	1102.781738	2071.482666	2013.303223	93.994080
801.655151	1102.953979	2065.804443	2005.732300	93.761009
801.963745	1103.642090	2057.674316	1996.204224	93.556808
802.272400	1102.201050	2050.490479	1993.515747	93.991844
802.580933	1102.201050	2039.693359	1987.278564	94.409042
802.889404	1100.630981	2028.745972	1980.933716	94.848457
803.197815	1099.082520	2021.282837	1977.019165	95.200211
803.506226	1099.297607	2016.185425	1970.867920	95.057465
803.814575	1100.566528	2007.926147	1964.243408	95.185730
804.122864	1101.190308	2004.979614	1958.565308	94.864479
804.431030	1100.007324	2001.473877	1954.672363	94.808289
804.739197	1102.201172	2001.990112	1950.800903	94.310974
805.047241	1102.416138	2005.754028	1950.026611	93.830948
805.355408	1101.426758	2007.345703	1950.929688	93.772507
805.663391	1099.146973	2007.990601	1951.295288	93.761818
805.971313	1099.168457	2010.550049	1952.564453	93.637619
806.279175	1098.286621	2015.131226	1953.231201	93.248581
806.587036	1097.641479	2015.045410	1951.639526	93.088554
806.894836	1098.566284	2019.046021	1954.371094	92.973778
807.202576	1098.351074	2019.497314	1956.048950	93.112022
807.510193	1096.888550	2016.873535	1956.801880	93.470367
807.817810	1095.210938	2012.937622	1953.575439	93.531609
808.125427	1093.791504	2003.044067	1948.478027	93.998802
808.432922	1094.114136	1993.773804	1941.745972	94.216942
808.740295	1094.587280	1982.503540	1938.261719	95.017342
809.047729	1097.576904	1975.276978	1929.443359	94.777985
809.355103	1097.039185	1967.017944	1920.603516	94.664879
809.662415	1098.329590	1958.005981	1909.118408	94.313255
809.969604	1100.652466	1948.585449	1901.762573	94.477997
810.276794	1098.867310	1934.863403	1889.933228	94.625549
810.583923	1098.996460	1925.744141	1879.824341	94.445732
810.890991	1101.254761	1915.011597	1871.242554	94.621361
811.197998	1102.093628	1908.214844	1862.940552	94.383690
811.505005	1103.018433	1904.429321	1856.746094	94.050087
811.811829	1101.706421	1894.557129	1850.917603	94.495872
812.118713	1101.899902	1888.190918	1845.325439	94.548393
812.425537	1099.835205	1879.695313	1839.604248	94.859200
812.732300	1098.222168	1872.963257	1834.119629	94.986244
813.038940	1097.684448	1866.187988	1830.205200	95.317810
813.345581	1098.845825	1863.585571	1829.366455	95.525391
813.652100	1099.060913	1860.918823	1822.526611	94.960709
813.958740	1097.426270	1856.810913	1818.741333	94.986786
814.265137	1096.953125	1852.681152	1813.687134	94.840202
814.571533	1097.921021	1844.830811	1810.589966	95.415665
814.877930	1098.329590	1838.356934	1808.955444	96.026970
815.184265	1099.039429	1836.184448	1804.159058	95.655479
815.490540	1097.770386	1834.356323	1800.395020	95.389366
815.796692	1097.254150	1834.635864	1801.083496	95.449799
816.102844	1099.211426	1837.539551	1800.567261	94.992432
816.408936	1100.523438	1839.324341	1802.588745	95.027672
816.714966	1099.211426	1841.475098	1800.567261	94.488770
817.020935	1100.673950	1842.270996	1804.072998	94.849228
817.326843	1103.964722	1845.712402	1806.008667	94.647270
817.632690	1102.158081	1852.294067	1809.471558	94.291367
817.938477	1101.835449	1856.961304	1812.396606	94.098373
818.244263	1101.792480	1867.629272	1817.515625	93.456352
818.549988	1100.760010	1873.328857	1828.183594	94.156471
818.855652	1103.470093	1885.846558	1839.561279	94.084015
819.161194	1103.706665	1902.515503	1856.939575	94.294518
819.466797	1103.771118	1925.163330	1879.264893	94.412117
819.772278	1103.255005	1952.435425	1906.451172	94.584869
820.077698	1102.738770	1988.138794	1939.143677	94.466331
820.383057	1101.813843	2028.810669	1980.137939	94.749420
820.688354	1098.673706	2080.752441	2032.015503	95.037369
820.993652	1101.663330	2157.772705	2108.927979	95.375031
821.298828	1101.684814	2304.586670	2252.730713	95.689095
821.604004	1100.630981	2572.469482	2518.161621	96.310204
821.909058	1099.835205	2981.638184	2907.457031	96.057976
822.214111	1096.953125	3465.762695	3367.449463	95.849678
822.519165	1097.985474	3929.153320	3813.935059	95.930367
822.824036	1096.824097	4320.793457	4195.423340	96.111313
823.128906	1095.361450	4639.757813	4508.773438	96.304466
823.433716	1096.178833	4895.488281	4763.385742	96.522987
823.738525	1094.673340	5104.998047	4964.980957	96.508583
824.043213	1094.049683	5264.351074	5115.580078	96.432610
824.347900	1090.887817	5364.987793	5212.818359	96.439735
824.652466	1090.414551	5375.397949	5216.022949	96.280617
824.957031	1093.103149	5241.897461	5080.780273	96.116531
825.261536	1093.318237	4947.731445	4801.369141	96.202736
825.565979	1093.167725	4563.447266	4433.861328	96.265839
825.870300	1095.705688	4180.711426	4062.288086	96.161324
826.174622	1097.125122	3872.071045	3763.992920	96.105217
826.478821	1098.157593	3660.776367	3552.956055	95.792572
826.783142	1096.867188	3533.771240	3424.833008	95.529648
827.087280	1097.469482	3464.859375	3354.974854	95.358414
827.391357	1099.361938	3414.552246	3308.238037	95.407959
827.695435	1101.211670	3371.278320	3264.361572	95.290146
827.999451	1102.416138	3325.917725	3226.507080	95.529099
828.303406	1102.179565	3276.857910	3184.480713	95.752159
828.607239	1101.964478	3237.540771	3142.088379	95.530373
828.911011	1102.459106	3190.309326	3099.029053	95.628029
829.214844	1099.942749	3143.464844	3056.808838	95.759476
829.518616	1098.609375	3076.682617	2992.048340	95.721375
829.822205	1098.781372	2972.583496	2891.046387	95.648575
830.125793	1098.673706	2829.640869	2754.556396	95.662285
830.429382	1099.168457	2664.308838	2596.407959	95.661674
830.732849	1098.824341	2509.278564	2446.002197	95.513756
831.036316	1096.824097	2377.025635	2318.717529	95.445396
831.339661	1096.651978	2268.861816	2211.284912	95.088173
831.642944	1093.748413	2178.850830	2119.896973	94.566978
831.946228	1096.286377	2102.174561	2049.587402	94.772064
832.249512	1098.222046	2045.307129	1994.075073	94.590553
832.552673	1099.082275	2010.528564	1956.349976	94.055756
832.855774	1102.932373	1996.849487	1946.499146	94.367447
833.158813	1104.997192	2013.561401	1968.889038	95.083191
833.461731	1103.921753	2059.653076	2015.453857	95.375351
833.764771	1103.900269	2119.768066	2080.881348	96.172066
834.067627	1103.104492	2185.711914	2147.190674	96.441811
834.370422	1102.975464	2241.912354	2206.811035	96.918060
834.673157	1101.663452	2288.176025	2257.333496	97.400574
834.975891	1101.900024	2330.245850	2298.607422	97.424309
835.278564	1098.308105	2362.443115	2327.363525	97.225014
835.581177	1096.910156	2382.402588	2349.495361	97.440109
835.883728	1095.985229	2384.703857	2355.066162	97.700218
836.186218	1092.802002	2366.636963	2334.719482	97.494377
836.488647	1090.307129	2323.083252	2293.101318	97.567932
836.791077	1092.092285	2254.881348	2225.910400	97.508492
837.093384	1090.586792	2176.441650	2143.147461	96.933830
837.395630	1090.737305	2090.258789	2062.857666	97.258575
837.697815	1093.017090	2016.034790	1985.601074	96.702805
838.000061	1094.286255	1949.897705	1915.312622	95.957855
838.302124	1096.006714	1888.363281	1856.100830	95.928291
838.604126	1098.996338	1832.979980	1805.255981	96.222801
838.906128	1098.566284	1788.243042	1759.831177	95.880409
839.208069	1100.910645	1753.615112	1724.020264	95.465813
839.510010	1100.050293	1732.945801	1702.791748	95.235542
839.811829	1101.061157	1722.105835	1687.994019	94.507347
840.113586	1101.985962	1716.105103	1677.670288	93.741470
840.415222	1102.351685	1711.566895	1674.594482	93.931145
840.716919	1102.050537	1712.921875	1670.766113	93.099075
841.018555	1100.630981	1710.857056	1666.980835	92.809845
841.320068	1100.523560	1709.136353	1667.303223	93.126480
841.621521	1097.641357	1705.630737	1665.453613	93.391808
841.922974	1097.512329	1703.781128	1659.130371	92.635155
842.224365	1096.221802	1698.167480	1653.086670	92.510818
842.525635	1095.727173	1688.209351	1645.085571	92.721504
842.826965	1097.619873	1671.691040	1630.610840	92.844055
843.128174	1098.673706	1646.139526	1608.909058	93.199493
843.429260	1097.447754	1618.781250	1589.207520	94.327293
843.730408	1101.663208	1595.208496	1564.860474	93.851013
844.031433	1103.362427	1574.797241	1545.223511	93.726868
844.332397	1105.384277	1555.224976	1528.447388	94.047318
844.633362	1105.083130	1538.384277	1511.800293	93.864777
844.934204	1106.029419	1523.844604	1496.787598	93.524170
845.235046	1107.234009	1509.713989	1484.076416	93.630096
845.535828	1108.266357	1497.755371	1473.193359	93.693787
845.836487	1108.546021	1485.108521	1463.342651	94.219849
846.137146	1107.642700	1474.763428	1454.266357	94.416801
846.437744	1105.556396	1465.708496	1446.652344	94.708862
846.738281	1105.147583	1457.642944	1437.059814	94.160736
847.038757	1102.179565	1449.856934	1430.413940	94.407745
847.339172	1099.749146	1439.275024	1424.413086	95.622734
847.639526	1098.329590	1433.338867	1420.627808	96.205757
847.939819	1097.748901	1427.101563	1413.616089	95.905464
848.240112	1097.512207	1421.896606	1409.723145	96.247208
848.540283	1096.479980	1416.369141	1407.830444	97.330734
848.840393	1097.533813	1413.573120	1403.335327	96.760597
849.140564	1094.888428	1410.583374	1399.012207	96.334702
849.440552	1096.888672	1405.034302	1394.732056	96.656693
849.740540	1097.082153	1402.818970	1388.129028	95.195236
850.040405	1098.910400	1400.259644	1384.795288	94.868294
850.340210	1097.985596	1397.183838	1381.547607	94.773956
850.640137	1098.695435	1395.613770	1376.127441	93.437141
850.939819	1098.652344	1392.194092	1370.363403	92.563004
851.239502	1096.910156	1388.193481	1368.234131	93.147789
851.539185	1096.178955	1387.333130	1363.545288	91.829811
851.838745	1095.748779	1385.676880	1360.039551	91.157349
852.138245	1094.458130	1379.504272	1358.383301	92.590332
852.437744	1095.920776	1376.944824	1354.103271	91.872032
852.737122	1094.608643	1377.912598	1350.231934	90.229340
853.036499	1095.641113	1375.912354	1347.521851	89.870346
853.335815	1094.802246	1372.449585	1346.209839	90.549255
853.635010	1095.963623	1369.954712	1345.672241	91.137497
853.934204	1095.899170	1371.395630	1345.005371	90.420837
854.233276	1095.985229	1372.707886	1344.360229	89.755936
854.532410	1095.791748	1372.428223	1344.274170	89.822723
854.831482	1096.157349	1368.943848	1343.198608	90.562126
855.130371	1094.974487	1366.298340	1338.316406	89.686890
855.429260	1096.049927	1364.212158	1337.068848	89.878029
855.728088	1094.479736	1360.727783	1337.133423	91.138206
856.026855	1094.221558	1355.888550	1336.982910	92.774925
856.325623	1094.264526	1354.361450	1337.735718	93.607872
856.624329	1094.737793	1354.124878	1338.122925	93.830856
856.922913	1095.124878	1352.404175	1334.810669	93.161713
857.221436	1097.426270	1348.661743	1337.262573	95.462753
857.519958	1097.727417	1345.715088	1338.703491	97.172600
857.818420	1097.942383	1343.327759	1338.273315	97.940201
858.116821	1099.856567	1341.951172	1337.477539	98.152115
858.415161	1102.179565	1343.241699	1340.144531	98.715202
858.713379	1102.738770	1342.553589	1338.811035	98.439400
859.011658	1107.018799	1343.542847	1339.520752	98.299500
859.309814	1108.115723	1343.306274	1336.746216	97.210747
859.607910	1107.470581	1341.456543	1335.391235	97.407829
859.905945	1108.868652	1340.897339	1333.218872	96.690727
860.203979	1107.707153	1340.209106	1331.261719	96.151695
860.501953	1107.879272	1338.531494	1324.572632	93.948090
860.799744	1107.707153	1335.713989	1320.314087	93.245857
861.097656	1109.642822	1335.950439	1317.152466	91.693619
861.395325	1109.513794	1336.337646	1314.808105	90.508255
861.693115	1108.416870	1335.090088	1310.657104	89.221054
861.990784	1108.804199	1335.434326	1307.667480	87.747948
862.288330	1107.384521	1333.261963	1302.634644	86.440735
862.585815	1104.739136	1334.401855	1304.484131	86.973190
862.883301	1106.244629	1334.294434	1303.795898	86.626373
863.180786	1106.072632	1332.702881	1300.225708	85.669533
863.478149	1107.018799	1330.745605	1301.214966	86.800583
863.775452	1105.319824	1330.272339	1304.398315	88.498009
864.072693	1108.072876	1331.455200	1305.021973	88.166824
864.369873	1109.750366	1331.390747	1304.785278	87.996109
864.667114	1108.997681	1328.680664	1305.925293	89.641724
864.964111	1108.223511	1327.970947	1309.409546	91.553299
865.261169	1106.653198	1327.347168	1309.968872	92.125610
865.558105	1105.190796	1328.938843	1313.926270	93.290413
865.855042	1105.362793	1327.261230	1310.506592	92.449409
866.151917	1103.878662	1326.099731	1309.388184	92.479767
866.448730	1100.652466	1325.863159	1310.786255	93.305420
866.745422	1102.373047	1327.454590	1307.387817	91.084663
867.042114	1100.781616	1327.583862	1304.785400	89.947868
867.338806	1096.609009	1324.422241	1303.258301	90.709961
867.635376	1094.673218	1321.066895	1301.344116	91.288284
867.931824	1096.458496	1322.765991	1299.795532	89.849892
868.228271	1096.781128	1320.077515	1297.580200	89.924911
868.524658	1096.307861	1319.561401	1296.031494	89.460457
868.821045	1098.824341	1318.120361	1291.579224	87.897118
869.117310	1098.458618	1315.474731	1292.073975	89.217041
869.413574	1096.888550	1314.958740	1291.536255	89.259201
869.709717	1097.856567	1312.205566	1290.288940	89.775261
870.005859	1095.038940	1308.957886	1292.160034	92.147560
870.301880	1096.437012	1308.463257	1293.063599	92.736908
870.597900	1095.490601	1308.334106	1295.687378	94.058205
870.893860	1095.813232	1311.990479	1298.074951	93.562912
871.189636	1092.371948	1311.753906	1297.429565	93.470596
871.485535	1092.845093	1311.108643	1296.375854	93.250000
871.781311	1092.006348	1310.269897	1296.999512	93.920021
872.077026	1090.264160	1310.700073	1299.236328	94.799515
872.372681	1091.963379	1311.818481	1302.139771	95.597687
872.668274	1093.210815	1312.807861	1301.473145	94.838402
872.963806	1092.715942	1314.592896	1301.537598	94.115974
873.259338	1093.275269	1318.679565	1302.978638	93.034325
873.554688	1093.812988	1319.346191	1303.021606	92.761780
873.850098	1096.695190	1320.507813	1303.258301	92.292877
874.145447	1096.501465	1318.335449	1301.817261	92.553802
874.440674	1100.265503	1317.582520	1303.903564	93.705528
874.735840	1099.362183	1320.335693	1304.548706	92.855713
875.031006	1101.577393	1323.110107	1305.193970	91.912643
875.326050	1100.437378	1323.970581	1304.871338	91.455750
875.621094	1101.190186	1325.389893	1303.516235	90.243675
875.916077	1103.599121	1325.583618	1303.903442	90.233475
876.210999	1106.502686	1326.917114	1303.731323	89.480820
876.505798	1107.363037	1322.895142	1302.376343	90.479935
876.800598	1106.997192	1321.776855	1300.247192	89.975929
877.095337	1104.007690	1322.077881	1298.268433	89.081749
877.390015	1106.201538	1323.088745	1300.118042	89.408920
877.684692	1105.728516	1322.335938	1298.999756	89.226509
877.979187	1107.470581	1319.884033	1300.677246	90.957832
878.273804	1105.534790	1319.862549	1302.591553	91.941780
878.568237	1106.136963	1322.701660	1305.645630	92.124283
878.862610	1103.061401	1325.884766	1309.345093	92.577225
879.156921	1100.889160	1330.896118	1312.635742	92.060944
879.451172	1098.071533	1337.219604	1320.808716	93.137772
879.745422	1098.759888	1348.382202	1330.616455	92.882950
880.039612	1097.555298	1361.480591	1345.822632	94.067276
880.333679	1098.587769	1381.999146	1366.276855	94.452484
880.627686	1097.017578	1415.164673	1396.172974	94.030525
880.921692	1096.221802	1469.020752	1449.018311	94.634521
881.215698	1096.350830	1556.386353	1530.834839	94.445755
881.509460	1099.362183	1671.239380	1645.816772	95.554535
881.803345	1099.469604	1812.289063	1783.704956	95.989990
882.097046	1101.512817	1959.898804	1927.055908	96.173882
882.390808	1102.115112	2098.131104	2062.535156	96.426170
882.684448	1103.685059	2225.781250	2184.872803	96.354286
882.978027	1101.082642	2336.439941	2293.251709	96.503990
883.271545	1102.566772	2432.086426	2384.961914	96.455521
883.565002	1103.147583	2508.117432	2458.067871	96.437675
883.858398	1102.588379	2560.855225	2509.278320	96.463135
884.151733	1101.211670	2581.567383	2527.237793	96.329964
884.445068	1100.846069	2557.413818	2502.783203	96.249359
884.738281	1099.233032	2489.964600	2432.322754	95.855286
885.031433	1099.168335	2383.198486	2327.256104	95.643219
885.324585	1100.738403	2262.624268	2207.370117	95.244446
885.617676	1098.738281	2142.071777	2089.850098	94.994728
885.910645	1097.576904	2026.401489	1976.567261	94.634697
886.203552	1099.168457	1921.829590	1873.264404	94.096573
886.496521	1099.942749	1824.979004	1781.855347	94.052208
886.789368	1100.673950	1740.645996	1699.371826	93.550629
887.082153	1102.760254	1661.023071	1626.481201	93.812614
887.374817	1103.728149	1595.316040	1561.376221	93.095879
887.667480	1103.577637	1537.825073	1507.606201	93.041092
887.960083	1104.222900	1492.916382	1465.041748	92.828636
888.252625	1103.642212	1455.427734	1430.714844	92.975014
888.545166	1103.190552	1428.241699	1402.281250	92.013428
888.837524	1105.599487	1404.969849	1379.891357	91.622925
889.129883	1107.255493	1386.171875	1365.115356	92.450600
889.422241	1106.696411	1371.417358	1350.317627	92.029442
889.714478	1093.511841	1322.292847	1318.270874	98.241997
890.006714	1107.707153	1357.544556	1301.473022	77.556793
890.298767	1110.072998	1317.324585	1281.126465	82.534210
890.590881	1113.858398	1319.453735	1316.614624	98.619080
890.882935	1094.694824	1328.207642	1301.946289	88.753784
>>>>>End Processed Spectral Data<<<<<
