Jaz Data File
++++++++++++++++++++++++++++++++++++
Date: Mon Apr 22 19:25:05 2019
User: jaz
Dark Spectrum Present: Yes
Reference Spectrum Present: Yes
Processed Spectrum Present: Yes
Spectrometers: JAZA2928
Integration Time (usec): 40000 (JAZA2928)
Spectra Averaged: 10 (JAZA2928)
Boxcar Smoothing: 5 (JAZA2928)
Correct for Electrical Dark: No (JAZA2928)
Strobe/Lamp Enabled: Yes (JAZA2928)
Correct for Detector Non-linearity: No (JAZA2928)
Correct for Stray Light: No (JAZA2928)
Number of Pixels in Processed Spectrum: 2048
>>>>>Begin Processed Spectral Data<<<<<
W	D	R	S	P
190.104553	0.000000	0.000000	0.000000	0.000000
190.488098	0.000000	0.000000	0.000000	0.000000
190.871613	1085.940918	1056.130981	1061.572388	81.746330
191.255096	1070.326050	1101.319336	1091.382568	67.938965
191.638535	0.000000	0.000000	0.000000	0.000000
192.021942	909.790100	910.671936	909.639587	-17.068106
192.405334	1011.974854	1014.813904	1010.684326	-45.456303
192.788696	1115.987793	1119.256958	1113.514282	-75.661850
193.172012	1123.859741	1125.967529	1120.160278	-175.513992
193.555313	1129.924927	1129.688354	1124.590942	2254.695557
193.938568	1131.301514	1135.388062	1126.161011	-125.790840
194.321793	1133.688843	1137.689331	1129.043091	-116.129623
194.704987	1135.775146	1138.614136	1131.452026	-152.276733
195.088150	1136.871948	1135.818115	1131.688599	491.856842
195.471298	1134.785767	1136.377319	1131.129395	-229.736160
195.854401	1133.774902	1137.474121	1130.763794	-81.398499
196.237457	1133.538208	1135.990112	1133.065063	-19.297022
196.620499	1134.333984	1133.925415	1134.183472	36.838959
197.003494	1134.441528	1132.763916	1133.602661	50.003639
197.386475	1128.849487	1133.882446	1134.032959	102.990540
197.769424	1126.268555	1133.516724	1134.785767	117.508461
198.152344	1126.440552	1134.656738	1134.570679	98.952560
198.535217	1125.193237	1135.603027	1134.871826	92.975830
198.918076	1121.085083	1139.818726	1134.183472	69.919067
199.300903	1118.375122	1144.485840	1135.022339	63.756260
199.683670	1118.031006	1145.217163	1133.817871	58.069500
200.066422	1119.235474	1145.432251	1137.130127	68.308609
200.449142	1119.106567	1147.733643	1135.387939	56.874031
200.831848	1116.633057	1148.787476	1136.377319	61.404507
201.214508	1114.181152	1148.873535	1135.086792	60.260029
201.597137	1114.589722	1148.615356	1134.355591	58.091110
201.979736	1114.503662	1149.647827	1130.376587	45.165180
202.362274	1113.815308	1148.249878	1129.860474	46.596096
202.744827	1111.922729	1148.228271	1127.301025	42.357986
203.127319	1111.621582	1146.314087	1124.935059	38.375656
203.509796	1112.202271	1145.088013	1124.117676	36.232738
203.892227	1112.417480	1143.130737	1124.440552	39.146194
204.274643	1109.793457	1141.022949	1121.106567	36.225727
204.657013	1108.890137	1140.205688	1122.719849	44.162441
205.039352	1109.492310	1139.797119	1120.181763	35.273125
205.421661	1111.212891	1139.861572	1119.708496	29.654438
205.803940	1110.331177	1139.904541	1116.869507	22.108849
206.186188	1110.911865	1139.388428	1118.482666	26.586077
206.568405	1111.772217	1138.528198	1117.041626	19.694323
206.950592	1114.116577	1138.958252	1119.730103	22.597210
207.332748	1113.793945	1135.925659	1120.267944	29.252136
207.714859	1111.815186	1136.205322	1120.547485	35.802586
208.096939	1107.836182	1135.409546	1120.956177	47.582134
208.478989	1107.728638	1133.839355	1120.246216	47.940384
208.861008	1107.492065	1134.570679	1116.718994	34.074600
209.243011	1105.169067	1134.936401	1117.020020	39.811935
209.624969	1102.717163	1136.334351	1116.396362	40.691086
210.006897	1102.502075	1134.678223	1117.643921	47.059227
210.388794	1100.716919	1135.990234	1117.557861	47.744144
210.770645	1099.297363	1136.828979	1115.837158	44.068966
211.152481	1097.834839	1136.893555	1112.546509	37.665524
211.534286	1097.791870	1140.657349	1111.987183	33.115955
211.916061	1099.103882	1141.130615	1111.363525	29.171061
212.297791	1100.114746	1145.475220	1111.191406	24.419189
212.679489	1101.383667	1147.733521	1110.202026	19.025646
213.061157	1101.878418	1147.475464	1111.320435	20.707518
213.442795	1104.115234	1147.819580	1110.847290	15.403630
213.824402	1103.556152	1147.970215	1111.449585	17.772373
214.205963	1105.169067	1150.508057	1111.643066	14.279099
214.587524	1106.975830	1149.475708	1111.965698	11.740900
214.969025	1105.685425	1149.948853	1114.761719	20.505177
215.350510	1105.448730	1150.551025	1118.160156	28.183546
215.731949	1101.448364	1150.766113	1118.783691	35.150280
216.113358	1102.717285	1150.809082	1117.041626	29.785414
216.494736	1103.039917	1149.540161	1117.772949	31.683773
216.876083	1102.007568	1149.970337	1116.848145	30.941868
217.257401	1099.598633	1150.228394	1117.622437	35.599228
217.638702	1100.200928	1152.594238	1119.687378	37.192631
218.019943	1099.168457	1151.519043	1122.569336	44.700317
218.401169	1097.168335	1151.454590	1122.418823	46.513596
218.782349	1096.888550	1155.368896	1123.451050	45.421242
219.163498	1098.523193	1157.369263	1123.644653	42.690125
219.544632	1101.856934	1159.218872	1123.859741	38.357853
219.925705	1105.599365	1161.563232	1124.978149	34.627316
220.306778	1105.814453	1164.509888	1127.645142	37.193161
220.687805	1107.900757	1166.639282	1127.731201	33.760540
221.068802	1108.803955	1169.843872	1133.000732	39.640907
221.449738	1110.094604	1175.522095	1135.947144	39.513268
221.830673	1108.309326	1179.156860	1137.431274	41.105099
222.211563	1108.954590	1185.587891	1139.194946	39.461117
222.592438	1108.954590	1191.846680	1143.302979	41.437473
222.973267	1107.922119	1195.911621	1144.658081	41.750393
223.354065	1108.631958	1201.761841	1148.378906	42.679050
223.734848	1106.352051	1206.730225	1147.841187	41.332825
224.115555	1108.330933	1213.935425	1149.819946	39.287167
224.496262	1107.900757	1221.119019	1155.971191	42.458199
224.876923	1108.718018	1231.227905	1160.530884	42.292805
225.257568	1106.029419	1241.035522	1163.843140	42.823044
225.638168	1108.717896	1250.284058	1166.725220	40.975418
226.018723	1111.836670	1262.651245	1172.575439	40.273808
226.399277	1112.675537	1279.104980	1179.608643	40.217106
226.779785	1114.353149	1296.892090	1186.684692	39.625267
227.160263	1116.073975	1316.701050	1196.836548	40.255074
227.540695	1116.353394	1346.403564	1208.838013	40.201935
227.921112	1115.987915	1386.473145	1225.915283	40.640804
228.301483	1114.374756	1440.436646	1246.584595	40.547466
228.681824	1115.105957	1509.004272	1271.232788	39.636330
229.062134	1113.922974	1591.487793	1300.698730	39.110031
229.442413	1115.170410	1669.604736	1330.186279	38.781124
229.822647	1109.901123	1732.429810	1355.221680	39.407108
230.202881	1106.524292	1781.425049	1370.427856	39.102573
230.583054	1106.610229	1816.418457	1380.601074	38.600685
230.963196	1104.696167	1848.357910	1392.064941	38.642403
231.343292	1104.954224	1876.791748	1400.044434	38.232166
231.723404	1103.663696	1890.599731	1402.969482	38.034321
232.103439	1103.018433	1883.308716	1401.915649	38.305901
232.483459	1102.996948	1859.865112	1392.452148	38.243809
232.863434	1102.652710	1820.569824	1373.267090	37.694378
233.243393	1103.534668	1769.531128	1354.146484	37.629601
233.623306	1103.082886	1726.041870	1334.810791	37.197941
234.003174	1107.621094	1700.425781	1322.443604	36.238327
234.383041	1107.298462	1685.112183	1317.862183	36.441452
234.762848	1106.997314	1678.293823	1316.335083	36.642578
235.142639	1108.072754	1668.916382	1310.119263	36.025463
235.522385	1106.739258	1663.324341	1307.731934	36.111763
235.902115	1107.513550	1663.001831	1306.140259	35.757137
236.281799	1106.459717	1673.992310	1306.247803	35.202927
236.661438	1108.266357	1684.789429	1308.656738	34.758430
237.041077	1109.341797	1696.210205	1313.861572	34.849342
237.420654	1109.771973	1703.372314	1316.249023	34.783848
237.800217	1111.019409	1709.674194	1320.357056	34.968006
238.179733	1109.965576	1713.717651	1321.819702	35.089588
238.559219	1110.610840	1719.245239	1323.002808	34.896477
238.938690	1110.374146	1728.042114	1325.626709	34.849236
239.318100	1108.352417	1744.603394	1330.853149	34.970592
239.697510	1107.728638	1762.949707	1335.412842	34.749218
240.076859	1109.040771	1791.447998	1345.564575	34.660213
240.456177	1111.019409	1828.248169	1360.104004	34.728752
240.835464	1109.083740	1878.577026	1376.837402	34.796101
241.214722	1105.642456	1948.692993	1400.646606	34.992462
241.593948	1105.879028	2045.264160	1431.725708	34.687229
241.973129	1104.975586	2163.407959	1466.783813	34.183407
242.352295	1103.964722	2299.984131	1510.982788	34.031059
242.731415	1105.577759	2437.377197	1553.719238	33.649323
243.110519	1106.545654	2551.197754	1591.594971	33.575512
243.489578	1107.685547	2640.972412	1621.211670	33.491848
243.868607	1108.954590	2704.593262	1641.730469	33.389507
244.247604	1107.040405	2749.286865	1656.291138	33.445084
244.626541	1106.137085	2783.979492	1663.216797	33.202148
245.005493	1107.363037	2812.025879	1669.712402	32.988892
245.384369	1111.535645	2835.254639	1674.572998	32.664104
245.763229	1108.976196	2866.355225	1681.219116	32.562294
246.142059	1109.901001	2917.522705	1694.468018	32.339012
246.520859	1110.481689	3011.448242	1720.557373	32.092922
246.899612	1107.707153	3150.024170	1765.509033	32.208607
247.278336	1106.309204	3317.572510	1813.278442	31.971285
247.657043	1106.330688	3471.398193	1860.402466	31.883734
248.035690	1106.137085	3596.596680	1900.385986	31.891661
248.414322	1105.534790	3703.921143	1933.121094	31.850012
248.792908	1104.825073	3784.081787	1959.769653	31.909765
249.171478	1105.061646	3831.851318	1977.298828	31.987698
249.550003	1102.158081	3843.164307	1979.858154	32.021088
249.928482	1102.158203	3801.654053	1969.577393	32.132637
250.306961	1100.996704	3715.320313	1944.671143	32.271229
250.685364	1100.996582	3567.387695	1897.568481	32.297062
251.063782	1102.566650	3382.203857	1835.087524	32.133221
251.442123	1102.824829	3203.773193	1781.575684	32.306881
251.820450	1105.212036	3077.284424	1744.001099	32.391766
252.198761	1103.857300	3009.146973	1721.697266	32.427612
252.576996	1104.566895	2958.043945	1705.200439	32.405773
252.955246	1105.276733	2910.575684	1691.327759	32.462826
253.333420	1103.340942	2869.366455	1679.089722	32.601387
253.711578	1103.383911	2838.244385	1671.755493	32.761803
254.089706	1104.072266	2820.155762	1666.787109	32.790646
254.467804	1106.352173	2801.766357	1662.098389	32.779377
254.845871	1106.502686	2784.409180	1660.012207	32.988102
255.223877	1107.621094	2757.760742	1656.033203	33.234283
255.601898	1107.406006	2719.110840	1644.311279	33.312878
255.979828	1104.029175	2669.427490	1625.728394	33.326931
256.357727	1103.233521	2625.421875	1610.973877	33.355949
256.735657	1104.803589	2602.343994	1599.574585	33.038906
257.113525	1105.685425	2616.797607	1603.983643	32.975594
257.491333	1110.094482	2666.932617	1615.985229	32.494755
257.869110	1112.911987	2739.887695	1637.149170	32.221573
258.246887	1113.793945	2846.051514	1667.927246	31.989082
258.624573	1111.686035	2998.500244	1711.416382	31.785341
259.002289	1110.137573	3210.698975	1772.327026	31.524403
259.379944	1108.137207	3491.164063	1854.466309	31.318535
259.757538	1107.986572	3829.807861	1955.425049	31.134979
260.135162	1112.094727	4167.957031	2057.932373	30.951580
260.512665	1114.224121	4430.354980	2138.501465	30.887724
260.890228	1113.729370	4604.785156	2194.207275	30.949890
261.267700	1112.654053	4711.680176	2223.028320	30.852076
261.645142	1108.266357	4771.945801	2239.374268	30.873550
262.022552	1104.997192	4809.756836	2248.644287	30.869669
262.399994	1102.394653	4815.177246	2248.730225	30.875374
262.777313	1103.792725	4772.375977	2236.427490	30.873901
263.154602	1104.395020	4660.813965	2200.745850	30.827381
263.531921	1107.857666	4471.070313	2141.598633	30.736712
263.909149	1108.287964	4217.984863	2060.169189	30.610098
264.286377	1104.523926	3950.252930	1976.782471	30.651497
264.663574	1103.104370	3746.120850	1914.021973	30.681517
265.040710	1102.330200	3628.600098	1874.275269	30.556713
265.417816	1101.469849	3578.636963	1857.477417	30.519039
265.794891	1102.975464	3585.153809	1856.982788	30.376841
266.171936	1106.696289	3623.459961	1864.359863	30.104677
266.548950	1106.610229	3677.552490	1877.178955	29.972229
266.925934	1106.954468	3735.409180	1890.126831	29.795925
267.302887	1108.567505	3797.868164	1909.849487	29.795179
267.679810	1105.620972	3870.414795	1926.475098	29.689522
268.056671	1106.244629	3946.532227	1947.811279	29.629627
268.433502	1108.524536	4030.349121	1969.685059	29.473381
268.810333	1109.449341	4110.165527	1985.880493	29.207397
269.187073	1108.503052	4182.066895	2006.334473	29.211412
269.563843	1111.578613	4243.815918	2021.927856	29.063866
269.940521	1108.395386	4289.671387	2038.230835	29.228382
270.317200	1105.298218	4349.291016	2052.877930	29.210291
270.693848	1106.180054	4451.948730	2080.042725	29.107294
271.070435	1104.158203	4608.871582	2119.961670	28.983925
271.447021	1101.254761	4783.947266	2162.483154	28.816645
271.823547	1102.717285	4933.234863	2203.219238	28.729851
272.200043	1102.717285	5055.529785	2236.363037	28.679472
272.576538	1101.211792	5159.607422	2263.656982	28.642975
272.952972	1101.297729	5254.608398	2291.552734	28.657982
273.329346	1101.297852	5336.961914	2312.264893	28.589781
273.705688	1099.856689	5394.947754	2327.062256	28.572285
274.082062	1103.878662	5434.350586	2332.331787	28.367651
274.458344	1104.545410	5430.414551	2333.213623	28.402805
274.834595	1104.975586	5373.891113	2315.405273	28.354502
275.210846	1107.062012	5279.556641	2288.606201	28.317453
275.587006	1109.406372	5188.491699	2263.140625	28.284140
275.963165	1107.535156	5131.560547	2245.805176	28.286850
276.339294	1108.223389	5102.933105	2235.459717	28.218229
276.715393	1108.804199	5097.857422	2231.717529	28.149870
277.091461	1108.352417	5095.986328	2231.308838	28.160973
277.467438	1107.363159	5100.395508	2231.437744	28.150902
277.843445	1106.395142	5116.333008	2233.588867	28.110004
278.219452	1103.599121	5136.120605	2237.180420	28.110979
278.595337	1103.642090	5168.790527	2239.395752	27.938799
278.971191	1105.470215	5202.988770	2246.923584	27.857185
279.347046	1102.846191	5224.970215	2252.623047	27.892826
279.722870	1103.512939	5245.789551	2256.645264	27.838131
280.098663	1105.126099	5272.502930	2261.785645	27.755098
280.474396	1104.244263	5315.346680	2272.797852	27.749350
280.850098	1105.577759	5378.472656	2289.918213	27.717518
281.225800	1106.889771	5478.054688	2311.060791	27.548058
281.601440	1108.416870	5604.263672	2344.204590	27.487320
281.977051	1109.771973	5762.928711	2384.080566	27.385895
282.352600	1110.804321	5917.786621	2424.515625	27.329231
282.728149	1108.739502	6036.618652	2461.724609	27.455730
283.103668	1107.104858	6125.898438	2484.652100	27.447777
283.479156	1107.836182	6205.370605	2504.676025	27.402266
283.854553	1106.352173	6286.821777	2528.507080	27.452238
284.229950	1106.266113	6379.285645	2552.832275	27.433355
284.605347	1105.190796	6472.673340	2573.394287	27.353672
284.980652	1102.545288	6548.875488	2593.805664	27.381014
285.355988	1103.169067	6627.101074	2612.904541	27.330811
285.731201	1103.556152	6698.250000	2628.282715	27.253082
286.106445	1102.781982	6752.944824	2645.144775	27.297668
286.481659	1102.846313	6808.629395	2659.447754	27.281118
286.856781	1104.201294	6870.120117	2674.782959	27.239052
287.231934	1105.771362	6928.987793	2685.945557	27.135763
287.607025	1107.169556	6960.324707	2692.892822	27.091768
287.982056	1108.761108	6965.078125	2689.967773	27.000019
288.357086	1108.416870	6943.226074	2684.891602	27.018446
288.732086	1109.750244	6915.803223	2678.439453	27.018169
289.107025	1111.320313	6892.854492	2669.320068	26.947861
289.481934	1108.933105	6867.646484	2662.803223	26.982939
289.856842	1108.954590	6862.871582	2657.146729	26.906752
290.231659	1109.341675	6882.121582	2656.522949	26.801321
290.606506	1108.244751	6897.220215	2657.598145	26.763861
290.981262	1107.900757	6926.707520	2662.050293	26.709076
291.355988	1106.266113	6951.720703	2674.438965	26.827219
291.730713	1105.577759	6984.929688	2683.902588	26.845217
292.105377	1101.792358	7000.609375	2689.752686	26.919979
292.480011	1100.673950	7013.320801	2695.258789	26.969051
292.854614	1098.802734	7021.666016	2702.851318	27.082317
293.229187	1098.308105	7052.701660	2715.110840	27.153105
293.603729	1097.834839	7084.898926	2734.747314	27.340822
293.978241	1098.114502	7114.063965	2763.073486	27.675749
294.352692	1096.200317	7137.701660	2786.388184	27.976288
294.727081	1095.963745	7172.070801	2815.488525	28.299778
295.101501	1097.555298	7206.290527	2843.147949	28.575352
295.475830	1096.996216	7287.849609	2882.099121	28.834520
295.850189	1097.340332	7413.284180	2939.718994	29.170282
296.224457	1100.889038	7610.577637	3018.868652	29.463463
296.598694	1102.416138	7846.520508	3107.159180	29.725861
296.972931	1104.997192	8089.367676	3202.181885	30.026823
297.347107	1104.029297	8281.477539	3282.836914	30.356298
297.721283	1105.556274	8400.868164	3337.123291	30.589054
298.095367	1105.255249	8443.261719	3358.803223	30.710629
298.469452	1107.943848	8421.086914	3368.353027	30.908861
298.843475	1109.987061	8373.726563	3369.879883	31.111977
299.217529	1109.793457	8323.332031	3366.374268	31.282578
299.591492	1111.858276	8247.838867	3354.157715	31.422441
299.965424	1111.492554	8143.653320	3326.713379	31.501282
300.339325	1109.857910	7988.924805	3284.235107	31.608606
300.713196	1107.513550	7790.879395	3229.346680	31.747971
301.087036	1107.319946	7579.626953	3168.134521	31.840492
301.460815	1109.965454	7387.646973	3112.535889	31.899841
301.834564	1109.728882	7243.758301	3068.401611	31.931257
302.208282	1108.029785	7116.881348	3036.053711	32.086395
302.582001	1107.040527	7010.502930	3003.533447	32.125095
302.955658	1106.072632	6917.976074	2968.453613	32.044254
303.329254	1104.287354	6834.223145	2940.493164	32.045837
303.702820	1103.082886	6764.752930	2917.587158	32.048923
304.076416	1102.953857	6701.927734	2900.402100	32.103172
304.449921	1105.104614	6637.296387	2879.604248	32.075886
304.823395	1106.051025	6586.451172	2860.590820	32.014809
305.196838	1106.567261	6530.292480	2836.867432	31.902431
305.570251	1106.481201	6469.038574	2813.208740	31.826744
305.943604	1106.223145	6403.201660	2794.023438	31.863453
306.316986	1110.094604	6367.820801	2780.516602	31.770807
306.690277	1108.868652	6345.474609	2771.805664	31.756008
307.063507	1108.373901	6343.840332	2772.558594	31.786753
307.436768	1109.449341	6365.262207	2777.548584	31.738176
307.809937	1110.653809	6409.956055	2788.496338	31.661575
308.183136	1111.298950	6479.620117	2808.563232	31.616295
308.556244	1108.223511	6569.566895	2834.544922	31.609831
308.929321	1107.664185	6653.534180	2861.193604	31.618652
309.302399	1105.943481	6743.825195	2893.046631	31.698132
309.675446	1106.309082	6841.664551	2917.996094	31.588051
310.048401	1106.911377	6937.526367	2942.644287	31.484377
310.421356	1103.190552	7031.215820	2968.711914	31.469524
310.794281	1103.706543	7135.378418	3000.199463	31.442244
311.167145	1103.620728	7231.713867	3029.622803	31.429060
311.539978	1103.448608	7308.023926	3052.614746	31.414982
311.912781	1100.932129	7343.147949	3061.863281	31.414024
312.285553	1101.641846	7331.144043	3056.185059	31.375593
312.658295	1102.480591	7282.859375	3039.042969	31.334040
313.031006	1104.846558	7225.992188	3020.696777	31.298883
313.403656	1103.190308	7173.060547	2998.220947	31.220284
313.776276	1101.985962	7139.852051	2989.467041	31.260731
314.148865	1102.394653	7134.390137	2987.854004	31.257639
314.521454	1101.168701	7136.002930	2987.660400	31.260042
314.893982	1099.577148	7119.096680	2980.261719	31.243101
315.266449	1100.523438	7070.789551	2964.130859	31.214813
315.638885	1099.770752	7000.157715	2943.031494	31.239660
316.011322	1101.728027	6926.600098	2919.974609	31.215219
316.383667	1100.394409	6864.806641	2898.767822	31.197863
316.756042	1104.696045	6818.005859	2882.335693	31.114010
317.128326	1104.265869	6778.517578	2866.527100	31.057156
317.500610	1107.233887	6732.468750	2850.310303	30.986731
317.872833	1106.760864	6660.287598	2829.597900	31.022394
318.245087	1106.717773	6574.492188	2799.336182	30.956259
318.617218	1108.180298	6490.954590	2769.031250	30.854923
318.989319	1109.513794	6426.925293	2746.297363	30.781586
319.361420	1108.847046	6388.383301	2731.994385	30.744127
319.733490	1109.040527	6360.379883	2719.498291	30.667562
320.105530	1109.535278	6337.150391	2711.734131	30.648752
320.477509	1108.588867	6314.438965	2701.732666	30.602951
320.849457	1103.577515	6289.725098	2697.172852	30.727922
321.221375	1102.846313	6273.335938	2693.645508	30.766895
321.593231	1101.125732	6265.291992	2687.902832	30.726686
321.965088	1098.308105	6269.142090	2684.805664	30.681658
322.336884	1096.437012	6281.552734	2690.892334	30.750622
322.708618	1097.146729	6312.072266	2700.355957	30.742704
323.080414	1096.652100	6366.401855	2715.884766	30.726934
323.452118	1094.565674	6457.295410	2744.318604	30.763308
323.823761	1091.855713	6583.870117	2780.688477	30.750696
324.195343	1090.070557	6713.713867	2820.736572	30.774817
324.566925	1091.554565	6843.923340	2860.203857	30.746452
324.938507	1092.500977	6965.335938	2893.261719	30.662546
325.310059	1092.974121	7070.747070	2922.039307	30.597769
325.681519	1093.554810	7176.157715	2959.420410	30.675446
326.052948	1097.921021	7269.933105	2986.864746	30.604990
326.424408	1098.007202	7340.715820	3002.199951	30.502670
326.795776	1097.727417	7364.848145	3007.834961	30.478231
327.167084	1098.566284	7339.898926	3001.317871	30.486303
327.538391	1102.287109	7270.729492	2975.487061	30.367472
327.909668	1105.491821	7175.964355	2941.870117	30.250994
328.280884	1107.578125	7081.910645	2913.694336	30.231264
328.652100	1109.169800	6998.222168	2888.530273	30.214718
329.023254	1111.879761	6936.085449	2866.849854	30.132351
329.394348	1110.417114	6876.121582	2847.320801	30.124743
329.765442	1109.062134	6803.187500	2822.220947	30.086426
330.136475	1108.352417	6736.382813	2802.347412	30.099251
330.507538	1109.384644	6665.556641	2783.699951	30.134333
330.878479	1109.083618	6619.228516	2771.397217	30.168238
331.249420	1109.836426	6594.365234	2763.503662	30.151491
331.620331	1109.363281	6598.559570	2766.945068	30.197166
331.991211	1109.556763	6614.367676	2776.924805	30.289288
332.362030	1104.631592	6648.609375	2783.915039	30.290228
332.732819	1101.383911	6686.248047	2798.174805	30.381954
333.103577	1099.964233	6714.616699	2809.573975	30.449076
333.474304	1102.201050	6744.190430	2822.328125	30.487953
333.845001	1103.792725	6763.806152	2828.651611	30.474464
334.215668	1102.351685	6780.667480	2833.061035	30.479273
334.586273	1101.362305	6802.648926	2843.148193	30.550751
334.956818	1102.910767	6819.038574	2851.880615	30.597109
335.327362	1102.631226	6843.492676	2859.408203	30.601278
335.697876	1103.427002	6852.806152	2860.505127	30.561182
336.068329	1102.545166	6861.108887	2862.139648	30.556135
336.438751	1105.900391	6856.420410	2865.086182	30.591768
336.809174	1110.997925	6857.625000	2860.720215	30.447815
337.179504	1110.395752	6867.883301	2862.763428	30.436327
337.549896	1110.739868	6894.811035	2867.301758	30.368954
337.920135	1109.750488	6938.881348	2881.217529	30.389900
338.290375	1111.643066	6985.682617	2895.348389	30.365906
338.660614	1112.567871	7031.601563	2908.790771	30.346556
339.030792	1111.707764	7072.187500	2917.200684	30.291069
339.400940	1111.083984	7105.461426	2927.782227	30.306704
339.771027	1109.341675	7136.647949	2941.289307	30.394136
340.141083	1110.976318	7170.501465	2953.269287	30.403255
340.511139	1111.815308	7208.527832	2965.227783	30.400196
340.881134	1107.190918	7245.671875	2978.283203	30.481358
341.251068	1106.653198	7272.943848	2990.607178	30.552469
341.621002	1104.072266	7289.419922	2997.446289	30.610632
341.990875	1103.878662	7297.398926	3002.845215	30.660536
342.360718	1103.943237	7304.431641	3007.211182	30.695452
342.730560	1105.642456	7327.487793	3012.330322	30.645054
343.100311	1106.631836	7369.987793	3025.278076	30.632879
343.470032	1106.911499	7429.909668	3044.871826	30.649389
343.839752	1107.255615	7508.500000	3070.789063	30.674248
344.209442	1105.319824	7596.145020	3101.029053	30.746618
344.579041	1104.050903	7693.920410	3130.344727	30.748617
344.948639	1105.685425	7780.275391	3160.864746	30.791094
345.318176	1106.201660	7865.125000	3185.448486	30.762989
345.687714	1106.782349	7949.564453	3216.355469	30.829174
346.057190	1106.416748	8022.046875	3237.971191	30.822275
346.426636	1105.061646	8068.547363	3258.747803	30.928274
346.796051	1102.996948	8086.076660	3268.189697	31.006275
347.165405	1101.362427	8073.623535	3268.749023	31.085852
347.534729	1100.652710	8034.264160	3260.446777	31.149626
347.904083	1100.007324	7972.708008	3241.390625	31.157814
348.273315	1102.287109	7897.063965	3216.785400	31.119467
348.642517	1102.286987	7822.968750	3192.911621	31.107328
349.011719	1101.641724	7757.713867	3177.167725	31.182442
349.380890	1101.878418	7711.687012	3166.951416	31.242554
349.749969	1103.061401	7674.155762	3158.692383	31.282930
350.119049	1104.868164	7654.217285	3152.325928	31.262003
350.488098	1106.481201	7655.551270	3151.981934	31.233452
350.857117	1107.621216	7670.198242	3159.144287	31.260935
351.226074	1110.073120	7699.664063	3170.973633	31.275089
351.595001	1110.610840	7740.421875	3182.007568	31.243677
351.963867	1110.180542	7791.288574	3196.933594	31.233637
352.332764	1108.395386	7853.146484	3220.678711	31.317438
352.701538	1108.933105	7917.110840	3246.617188	31.398769
353.070343	1107.255371	8003.551758	3274.448975	31.425470
353.439056	1105.836060	8092.981445	3304.646240	31.469360
353.807770	1105.147583	8187.166016	3333.424072	31.463860
354.176453	1105.685425	8283.155273	3369.535889	31.541067
354.545105	1101.942993	8397.578125	3409.734375	31.632496
354.913666	1101.211792	8531.207031	3453.782715	31.663155
355.282227	1098.157593	8684.582031	3505.552979	31.732941
355.650757	1097.189697	8833.481445	3561.882568	31.858839
356.019226	1099.125488	8996.340820	3616.491211	31.876625
356.387695	1100.437500	9182.535156	3681.079590	31.930349
356.756104	1100.867676	9411.251953	3761.734619	32.018578
357.124451	1103.319580	9663.155273	3846.454834	32.046585
357.492828	1102.566772	9899.399414	3925.625732	32.091766
357.861084	1103.276489	10098.499023	3995.204102	32.149597
358.229401	1102.846191	10256.109375	4047.963867	32.175602
358.597595	1104.179810	10363.456055	4087.840088	32.223469
358.965759	1103.857300	10459.769531	4119.413574	32.231556
359.333923	1104.308960	10550.339844	4157.074219	32.317966
359.702057	1107.836182	10690.334961	4207.016113	32.342083
360.070129	1108.094360	10860.077148	4269.991699	32.423126
360.438141	1106.545654	11058.403320	4337.118652	32.462009
360.806122	1108.890137	11282.582031	4410.912598	32.456482
361.174133	1109.019043	11550.722656	4498.858887	32.464436
361.542053	1110.739746	11830.155273	4595.580566	32.509613
361.909912	1108.890137	12083.261719	4682.773926	32.565727
362.277771	1109.470825	12281.199219	4759.901855	32.675617
362.645599	1112.567993	12406.440430	4803.326660	32.679302
363.013367	1111.922852	12446.811523	4827.479980	32.779831
363.381134	1112.309814	12429.625977	4823.286133	32.790249
363.748810	1109.148193	12337.292969	4789.862793	32.781147
364.116455	1108.545898	12161.850586	4737.705078	32.833252
364.484100	1107.857544	11911.327148	4660.255371	32.882011
364.851715	1106.438110	11564.336914	4547.638672	32.905281
365.219238	1106.330688	11116.797852	4406.804199	32.970226
365.586761	1108.610596	10644.007813	4254.140137	32.987923
365.954224	1110.374146	10229.397461	4117.649414	32.978043
366.321686	1110.395752	9906.173828	4005.248535	32.911842
366.689117	1108.954590	9687.071289	3938.509521	32.985733
367.056458	1109.642822	9550.624023	3889.965576	32.938381
367.423737	1108.847168	9436.072266	3848.949951	32.905354
367.791077	1109.987061	9330.467773	3819.935303	32.965813
368.158295	1109.277344	9255.921875	3795.803711	32.977093
368.525543	1110.782959	9182.815430	3767.671143	32.914738
368.892700	1108.890137	9119.925781	3746.421143	32.923721
369.259827	1105.685425	9063.208984	3729.666504	32.974846
369.626953	1100.996582	9032.152344	3721.278320	33.037830
369.994019	1098.523315	9003.932617	3713.406250	33.077133
370.361053	1098.544800	8992.319336	3712.717773	33.116894
370.728027	1098.566284	9000.920898	3711.363037	33.063522
371.094971	1098.200684	9007.116211	3715.900879	33.098091
371.461914	1097.942505	9032.130859	3728.698486	33.157215
371.828796	1096.931641	9066.628906	3741.689697	33.185177
372.195618	1096.910034	9099.794922	3753.669434	33.197521
372.562408	1097.942383	9130.400391	3773.413818	33.308254
372.929199	1098.845703	9166.985352	3793.588379	33.399803
373.295898	1100.372803	9202.795898	3806.945068	33.404480
373.662598	1102.437622	9240.972656	3818.473389	33.372536
374.029236	1105.534790	9269.858398	3834.109619	33.420708
374.395844	1102.179565	9303.324219	3850.864258	33.515865
374.762421	1101.190186	9331.479492	3862.048584	33.545097
375.128967	1102.996826	9382.688477	3883.750244	33.585232
375.495483	1103.921753	9458.161133	3911.215820	33.603226
375.861908	1105.061646	9573.099609	3951.736572	33.616699
376.228333	1106.373657	9735.420898	4006.990723	33.614571
376.594727	1104.954224	9951.856445	4079.129150	33.618263
376.961090	1103.771362	10193.457031	4162.924316	33.655212
377.327393	1106.373779	10423.506836	4245.128418	33.687988
377.693665	1108.503052	10601.615234	4313.760254	33.764030
378.059906	1106.567261	10739.804688	4364.583984	33.820580
378.426086	1106.094238	10820.609375	4397.534668	33.881672
378.792267	1107.707153	10859.777344	4420.935059	33.974613
379.158386	1108.373901	10854.506836	4423.042480	34.010090
379.524445	1109.771851	10825.342773	4419.214355	34.063282
379.890503	1110.008423	10760.688477	4406.675293	34.159946
380.256531	1108.201782	10656.246094	4384.199219	34.310665
380.622467	1108.588989	10504.075195	4340.516113	34.398724
380.988403	1110.460083	10320.676758	4282.466309	34.440083
381.354279	1108.029785	10149.300781	4232.696777	34.560040
381.720154	1109.642944	10012.982422	4195.960938	34.664719
382.085968	1110.116089	9927.724609	4175.033691	34.759056
382.451752	1111.385010	9885.675781	4170.366211	34.863003
382.817474	1110.417114	9900.688477	4181.722168	34.939823
383.183197	1108.244873	9955.663086	4210.306641	35.061775
383.548859	1107.707031	10022.509766	4245.321289	35.195553
383.914490	1107.685547	10095.939453	4278.788086	35.280518
384.280060	1106.416504	10161.324219	4310.792480	35.388275
384.645599	1106.352051	10229.569336	4347.807617	35.529743
385.011108	1106.093994	10300.351563	4391.898926	35.737576
385.376617	1107.685669	10384.232422	4439.754395	35.919281
385.742035	1104.846680	10474.286133	4485.609863	36.082874
386.107452	1104.954224	10567.115234	4535.766113	36.258228
386.472778	1106.330811	10662.116211	4581.600098	36.368225
386.838135	1104.932617	10749.223633	4631.885742	36.570374
387.203430	1106.459595	10808.714844	4673.181152	36.761780
387.568634	1105.448730	10854.484375	4708.476074	36.957783
387.933838	1104.997070	10884.187500	4736.371582	37.133694
388.299042	1109.621338	10910.061523	4768.053223	37.329262
388.664124	1109.470825	10930.428711	4796.659180	37.544083
389.029236	1108.330933	10948.539063	4817.672363	37.695763
389.394318	1108.180420	10954.991211	4835.717773	37.855278
389.759308	1110.094604	10969.187500	4861.914551	38.054413
390.124298	1109.019165	11002.416992	4894.111816	38.258778
390.489227	1108.481445	11079.329102	4945.989258	38.487278
390.854126	1109.965576	11182.459961	5012.406250	38.743538
391.218964	1108.266235	11322.348633	5092.437500	39.006653
391.583771	1108.610352	11460.817383	5167.371582	39.206722
391.948578	1109.513672	11593.177734	5248.091309	39.476444
392.313354	1105.448730	11693.167969	5313.002441	39.739944
392.678040	1105.749878	11787.826172	5372.084961	39.939194
393.042694	1106.136963	11888.741211	5436.437012	40.160053
393.407349	1104.265869	12004.368164	5511.113281	40.429413
393.771942	1100.867676	12131.159180	5585.165527	40.654392
394.136505	1098.501709	12232.075195	5648.872070	40.870708
394.501007	1098.867310	12250.872070	5682.812012	41.104221
394.865479	1097.447754	12193.532227	5685.478516	41.348198
395.229919	1097.899536	12070.162109	5658.142578	41.561558
395.594360	1096.781006	11929.284180	5623.664551	41.789822
395.958710	1094.995850	11782.621094	5588.348633	42.042572
396.323029	1097.146606	11664.046875	5557.097168	42.206802
396.687286	1099.168457	11547.215820	5530.965332	42.417469
397.051544	1100.695435	11433.180664	5504.639648	42.622314
397.415771	1103.276489	11292.905273	5463.968262	42.795395
397.779938	1103.513062	11135.983398	5420.263184	43.027786
398.144043	1106.416626	10975.725586	5377.461914	43.276035
398.508148	1105.749878	10846.719727	5344.275391	43.512356
398.872192	1106.567261	10745.933594	5321.175781	43.722878
399.236237	1106.610229	10670.699219	5316.443848	44.017090
399.600189	1109.083740	10616.691406	5327.520508	44.369064
399.964111	1109.750488	10582.794922	5333.456543	44.586571
400.328003	1108.825684	10557.092773	5347.931641	44.866489
400.691925	1106.674805	10548.381836	5369.589844	45.149834
401.055695	1104.696167	10535.284180	5386.667480	45.405136
401.419495	1105.147583	10541.952148	5412.111328	45.640064
401.783234	1104.093750	10567.309570	5443.061523	45.850880
402.146942	1104.373413	10580.084961	5474.613770	46.120441
402.510620	1104.695923	10615.229492	5513.220703	46.354130
402.874237	1104.588379	10673.751953	5561.441895	46.575161
403.237823	1105.857544	10771.420898	5621.922363	46.723244
403.601379	1103.771240	10901.070313	5693.328613	46.845131
403.964874	1101.878418	11061.736328	5785.964355	47.029648
404.328369	1102.330078	11225.068359	5880.147949	47.198868
404.691772	1101.469727	11383.733398	5972.610840	47.374210
405.055176	1101.641846	11540.247070	6068.106445	47.577858
405.418549	1100.953613	11671.446289	6147.536133	47.742172
405.781860	1102.953857	11765.910156	6214.834473	47.940559
406.145142	1102.351685	11848.887695	6271.874512	48.104084
406.508362	1100.157837	11897.194336	6314.266113	48.292034
406.871552	1099.598755	11914.058594	6338.806641	48.446320
407.234741	1097.899536	11892.678711	6349.259766	48.647224
407.597870	1098.458740	11837.294922	6350.550293	48.907459
407.960938	1099.405029	11763.157227	6339.409180	49.138462
408.323975	1100.501953	11688.825195	6323.923828	49.331909
408.686981	1100.760132	11624.300781	6314.352051	49.542183
409.049957	1101.512817	11579.477539	6312.932617	49.736946
409.412903	1100.910645	11579.994141	6341.215332	50.007278
409.775787	1103.556152	11608.556641	6373.520508	50.166248
410.138611	1106.072510	11650.669922	6414.234863	50.340111
410.501434	1110.524658	11708.204102	6463.445313	50.510311
410.864227	1112.223755	11746.896484	6504.073730	50.700668
411.226929	1112.632446	11788.665039	6540.272949	50.839493
411.589630	1113.428223	11822.755859	6568.383301	50.936481
411.952271	1116.310425	11847.897461	6590.623047	51.011211
412.314911	1116.159790	11863.900391	6613.185547	51.145874
412.677490	1115.729614	11876.655273	6627.531250	51.220516
413.040009	1115.578979	11886.268555	6639.167480	51.283516
413.402496	1115.191895	11866.609375	6635.144043	51.341621
413.764984	1113.428223	11834.455078	6637.123535	51.522072
414.127380	1110.933472	11824.604492	6641.812500	51.624500
414.489777	1110.008667	11831.379883	6645.039063	51.626141
414.852112	1110.116089	11869.363281	6670.310547	51.678284
415.214386	1106.997559	11936.662109	6711.196777	51.748596
415.576660	1106.674805	12035.340820	6769.354980	51.814926
415.938904	1104.545532	12165.206055	6837.363770	51.830708
416.301086	1103.921753	12317.656250	6918.062012	51.848385
416.663208	1106.352051	12495.719727	7010.718262	51.841038
417.025299	1104.523926	12692.347656	7117.248047	51.888294
417.387390	1107.126465	12916.933594	7232.659668	51.868191
417.749420	1107.664185	13195.377930	7369.041992	51.799522
418.111389	1109.148193	13496.941406	7520.909668	51.758709
418.473328	1108.997559	13833.950195	7701.965332	51.811333
418.835266	1109.944092	14205.543945	7888.654785	51.763271
419.197144	1114.912354	14599.657227	8098.186035	51.786469
419.558960	1115.729614	15034.377930	8333.829102	51.859200
419.920746	1115.751099	15511.663086	8594.183594	51.948307
420.282471	1115.665039	16074.227539	8890.908203	51.978546
420.644226	1116.654541	16642.363281	9212.926758	52.147522
421.005920	1117.450317	17200.044922	9520.018555	52.246349
421.367523	1115.062988	17704.322266	9817.066406	52.455650
421.729126	1114.869263	18129.578125	10071.291016	52.639290
422.090668	1112.740112	18508.529297	10300.331055	52.815029
422.452179	1112.288330	18812.931641	10496.461914	53.016006
422.813660	1110.911865	19112.841797	10690.830078	53.216061
423.175110	1108.373901	19411.007813	10874.422852	53.358704
423.536469	1108.503052	19655.835938	11038.894531	53.540810
423.897858	1107.212646	19856.054688	11196.569336	53.813225
424.259155	1106.825317	19930.041016	11288.280273	54.089886
424.620453	1101.190308	19945.248047	11324.650391	54.252960
424.981689	1101.878418	19900.576172	11347.147461	54.499889
425.342865	1102.588257	19849.298828	11344.825195	54.634850
425.704041	1101.684937	19768.105469	11331.382813	54.802681
426.065186	1102.459106	19672.716797	11312.907227	54.982803
426.426239	1101.835449	19546.292969	11267.331055	55.114098
426.787262	1102.222656	19328.652344	11182.074219	55.303490
427.148254	1102.932251	19028.789063	11050.638672	55.493614
427.509216	1101.684692	18694.187500	10879.433594	55.579071
427.870178	1102.523560	18279.685547	10655.062500	55.611858
428.231049	1101.727905	17872.582031	10434.625977	55.649513
428.591858	1106.567261	17488.619141	10228.988281	55.685459
428.952698	1105.642456	17118.486328	10025.263672	55.702919
429.313446	1104.760620	16761.517578	9837.777344	55.777943
429.674164	1105.470337	16456.294922	9665.068359	55.759857
430.034851	1106.653442	16158.281250	9502.618164	55.781109
430.395477	1107.341553	15906.465820	9355.008789	55.730778
430.756104	1105.642456	15714.184570	9244.930664	55.715950
431.116699	1106.395142	15553.583984	9154.295898	55.705654
431.477203	1103.878784	15418.663086	9085.040039	55.754673
431.837646	1104.652954	15357.708984	9060.047852	55.815365
432.198090	1104.739136	15337.406250	9050.842773	55.830040
432.558502	1103.749634	15340.266602	9075.404297	55.994419
432.918884	1105.083130	15371.237305	9110.677734	56.115997
433.279205	1104.953979	15433.438477	9165.200195	56.253307
433.639465	1104.652954	15494.156250	9223.616211	56.422821
433.999756	1103.168823	15573.284180	9283.946289	56.535675
434.359924	1102.738770	15652.305664	9358.342773	56.741234
434.720093	1104.566895	15715.709961	9415.596680	56.881447
435.080200	1103.814087	15769.545898	9480.830078	57.119659
435.440277	1107.449097	15820.327148	9539.977539	57.313927
435.800354	1107.406128	15854.137695	9589.639648	57.519413
436.160370	1108.546021	15863.386719	9634.096680	57.781380
436.520325	1107.126465	15868.397461	9665.154297	57.976219
436.880249	1105.491821	15869.772461	9689.199219	58.138336
437.240112	1104.007690	15877.494141	9719.999023	58.320637
437.599976	1102.609741	15923.329102	9780.329102	58.551270
437.959808	1105.384277	15984.863281	9857.500977	58.820053
438.319519	1104.222778	16061.215820	9944.071289	59.101776
438.679260	1102.717285	16173.660156	10051.116211	59.375172
439.038940	1104.072144	16327.722656	10178.013672	59.604240
439.398590	1103.577515	16530.156250	10344.506836	59.902649
439.758179	1101.727905	16789.457031	10533.089844	60.119358
440.117767	1101.813965	17104.636719	10763.204102	60.373043
440.477295	1102.674316	17428.570313	10992.050781	60.574787
440.836792	1104.480957	17747.060547	11232.295898	60.854836
441.196198	1106.094116	18022.835938	11435.847656	61.062313
441.555603	1106.266113	18234.710938	11611.977539	61.334877
441.914978	1105.362793	18377.330078	11738.401367	61.562408
442.274323	1105.814575	18473.687500	11833.293945	61.766224
442.633575	1104.825195	18531.974609	11904.592773	61.970940
442.992859	1102.566772	18534.320313	11935.219727	62.143219
443.352051	1100.308350	18492.572266	11925.347656	62.240540
443.711182	1102.029053	18390.644531	11894.461914	62.425083
444.070313	1100.975098	18259.791016	11843.165039	62.604488
444.429382	1101.641968	18114.310547	11782.535156	62.782001
444.788452	1101.297729	18022.427734	11747.884766	62.918884
445.147430	1099.921265	18001.091797	11755.521484	63.046528
445.506409	1099.405151	18036.513672	11786.708008	63.099922
445.865295	1098.136108	18160.464844	11877.837891	63.178379
446.224182	1099.405029	18370.490234	12021.596680	63.239750
446.583038	1100.588013	18611.101563	12191.596680	63.339142
446.941833	1100.846069	18869.736328	12383.684570	63.497711
447.300598	1100.394409	19118.605469	12557.406250	63.585735
447.659302	1098.178955	19323.125000	12706.865234	63.696690
448.018005	1100.050171	19471.550781	12813.997070	63.761517
448.376648	1099.082397	19577.027344	12895.167969	63.838730
448.735229	1101.061157	19592.533203	12924.440430	63.939629
449.093781	1100.846191	19539.453125	12910.524414	64.048645
449.452301	1102.330200	19427.289063	12863.678711	64.182129
449.810791	1103.255005	19245.503906	12766.162109	64.285896
450.169220	1102.889404	18963.898438	12603.991211	64.392227
450.527618	1102.502197	18669.667969	12424.872070	64.451889
450.885956	1102.803223	18396.730469	12253.991211	64.480362
451.244263	1103.082886	18132.847656	12107.328125	64.617714
451.602539	1103.104492	17917.898438	11982.302734	64.700165
451.960785	1101.469849	17751.490234	11890.183594	64.797005
452.318970	1104.674683	17618.054688	11823.724609	64.911301
452.677124	1103.534668	17493.501953	11748.316406	64.946938
453.035248	1103.513184	17355.742188	11670.479492	65.018570
453.393311	1105.319824	17210.777344	11575.477539	65.010002
453.751312	1106.739380	17061.273438	11481.315430	65.025879
454.109314	1106.588745	16932.162109	11411.457031	65.115295
454.467285	1106.223145	16796.466797	11340.243164	65.225365
454.825195	1106.502686	16644.642578	11243.800781	65.241386
455.183044	1106.158569	16490.300781	11144.822266	65.253319
455.540894	1107.771729	16312.581055	11028.139648	65.244934
455.898651	1106.588745	16140.602539	10914.964844	65.241234
456.256378	1105.298340	15975.097656	10807.145508	65.245316
456.614105	1103.577637	15849.490234	10733.868164	65.308205
456.971771	1105.513306	15780.019531	10685.710938	65.284630
457.329407	1103.276489	15769.350586	10687.173828	65.347397
457.686981	1101.104126	15827.056641	10742.771484	65.473984
458.044525	1101.383667	15996.025391	10849.258789	65.445518
458.402008	1101.469849	16249.238281	11022.785156	65.496880
458.759460	1101.899902	16633.072266	11291.334961	65.606354
459.116913	1103.900269	17143.347656	11630.473633	65.629280
459.474274	1101.964600	17748.671875	12030.759766	65.651390
459.831635	1102.674316	18318.248047	12410.893555	65.685982
460.188904	1100.114868	18817.556641	12737.340820	65.682312
460.546173	1100.200928	19216.060547	13014.515625	65.767319
460.903381	1099.620117	19511.148438	13221.531250	65.838707
461.260559	1098.781372	19718.873047	13362.881836	65.864876
461.617706	1098.738281	19844.222656	13444.612305	65.860519
461.974762	1099.835205	19816.476563	13439.428711	65.928467
462.331848	1099.899658	19682.394531	13353.181641	65.939926
462.688843	1098.222046	19383.757813	13157.889648	65.951958
463.045837	1097.189575	18940.044922	12870.842773	65.985252
463.402740	1099.619995	18391.591797	12528.950195	66.096161
463.759613	1100.437378	17865.740234	12195.467773	66.178528
464.116486	1100.738403	17398.607422	11905.475586	66.295395
464.473267	1101.319092	17029.548828	11661.508789	66.298576
464.830048	1102.480591	16737.945313	11474.734375	66.337997
465.186737	1104.695801	16506.689453	11329.425781	66.385757
465.543457	1105.470215	16337.313477	11228.446289	66.459297
465.900085	1103.663574	16282.833984	11200.227539	66.515923
466.256683	1104.244263	16292.621094	11215.863281	66.574715
466.613251	1104.480957	16357.274414	11265.977539	66.620560
466.969757	1106.029419	16439.476563	11328.974609	66.670891
467.326233	1105.319824	16510.820313	11373.667969	66.653778
467.682678	1107.234009	16560.052734	11412.747070	66.690186
468.039093	1108.546021	16580.548828	11430.792969	66.715645
468.395416	1108.201904	16570.224609	11425.459961	66.726448
468.751740	1106.889893	16553.146484	11425.975586	66.806389
469.108032	1106.975830	16523.464844	11415.328125	66.865761
469.464233	1107.255493	16484.578125	11386.485352	66.846680
469.820435	1108.674927	16407.945313	11334.651367	66.839638
470.176575	1110.202026	16285.781250	11243.543945	66.774002
470.532715	1111.686035	16129.696289	11146.519531	66.818665
470.888763	1112.116333	15987.184570	11059.089844	66.870102
471.244751	1113.492798	15888.291016	11001.427734	66.924332
471.600769	1112.610962	15828.303711	10972.046875	66.999466
471.956696	1113.837036	15821.293945	10977.273438	67.064186
472.312592	1114.503784	15883.688477	11027.151367	67.117096
472.668457	1114.460815	15968.472656	11096.428711	67.200485
473.024292	1114.611206	16080.165039	11183.493164	67.280380
473.380035	1113.836914	16152.497070	11249.802734	67.399391
473.735779	1113.428223	16223.559570	11321.639648	67.558716
474.091492	1111.406372	16299.697266	11402.079102	67.753990
474.447113	1108.481323	16406.613281	11489.725586	67.859558
474.802765	1107.470581	16513.466797	11580.467773	67.980003
475.158295	1106.330566	16627.951172	11676.092773	68.097023
475.513824	1104.351929	16748.632813	11767.243164	68.158401
475.869324	1104.115356	16876.734375	11875.558594	68.292038
476.224762	1104.416382	16990.210938	11978.839844	68.453758
476.580170	1104.351929	17126.080078	12085.842773	68.541237
476.935516	1103.749756	17276.789063	12206.889648	68.652153
477.290863	1103.169067	17498.664063	12372.609375	68.734985
477.646118	1103.061401	17727.509766	12541.490234	68.804855
478.001373	1104.395020	17985.345703	12738.483398	68.918442
478.356537	1106.825317	18247.376953	12937.862305	69.023666
478.711700	1108.008301	18524.294922	13135.562500	69.059235
479.066833	1107.535034	18798.650391	13348.362305	69.191948
479.421875	1108.481445	19090.105469	13577.681641	69.344124
479.776917	1107.083496	19404.767578	13814.334961	69.447327
480.131897	1108.201904	19747.414063	14080.412109	69.596336
480.486847	1108.481445	20138.667969	14379.049805	69.734299
480.841766	1107.255493	20624.296875	14737.502930	69.837669
481.196594	1108.395508	21200.820313	15164.006836	69.954773
481.551453	1107.169556	21940.115234	15706.699219	70.079048
481.906219	1105.685425	22896.210938	16419.603516	70.277870
482.260986	1107.363159	24232.376953	17407.726563	70.488014
482.615662	1107.449097	26140.806641	18832.226563	70.804634
482.970306	1106.868408	28737.750000	20803.136719	71.283531
483.324951	1106.201660	31746.945313	23209.519531	72.137016
483.679504	1106.545776	34837.628906	25759.664063	73.087250
484.034027	1103.448608	37693.785156	28064.917969	73.684669
484.388519	1102.502197	40153.171875	29999.693359	73.999222
484.742981	1103.728149	42112.316406	31518.613281	74.167107
485.097351	1101.469849	43613.167969	32710.375000	74.353424
485.451721	1103.340942	44699.816406	33601.972656	74.544167
485.806030	1104.136841	45443.222656	34230.781250	74.712059
486.160309	1102.502075	45882.390625	34650.808594	74.918243
486.514557	1100.351440	45884.199219	34776.183594	75.196381
486.868744	1102.717285	45417.625000	34512.898438	75.392647
487.222931	1103.405518	44580.058594	33874.800781	75.376999
487.577026	1103.082886	43572.601563	33045.453125	75.212463
487.931122	1105.513306	42634.746094	32323.105469	75.170158
488.285126	1107.943726	41781.023438	31737.675781	75.307144
488.639099	1107.922241	41036.996094	31309.173828	75.637245
488.993042	1107.384644	40419.503906	30953.537109	75.920990
489.346954	1105.578003	39883.546875	30651.195313	76.191757
489.700836	1105.233765	39383.351563	30387.138672	76.497765
490.054626	1106.287598	38821.929688	30079.037109	76.818924
490.408417	1107.750122	38300.144531	29797.457031	77.138641
490.762146	1105.900513	37821.589844	29553.125000	77.479752
491.115814	1104.265869	37457.500000	29402.199219	77.841583
491.469513	1104.523926	37116.941406	29274.767578	78.223694
491.823090	1103.018433	36680.972656	29063.470703	78.589272
492.176666	1101.512817	36209.734375	28831.056641	78.983047
492.530182	1100.394409	35745.246094	28574.656250	79.302582
492.883698	1102.416138	35244.714844	28288.707031	79.626427
493.237091	1102.975342	34703.437500	27962.130859	79.936867
493.590515	1101.813965	34062.304688	27549.349609	80.240112
493.943878	1099.706177	33276.421875	27009.068359	80.522087
494.297150	1099.125488	32215.968750	26239.273438	80.792732
494.650452	1101.039673	30864.232422	25247.257813	81.127785
495.003662	1102.029053	29264.033203	24040.613281	81.452240
495.356873	1102.373169	27692.054688	22842.400391	81.761139
495.710022	1102.996948	26369.289063	21856.966797	82.140938
496.063110	1103.642212	25355.443359	21117.089844	82.523552
496.416168	1103.147461	24639.269531	20621.736328	82.930359
496.769165	1104.954224	24163.982422	20302.945313	83.255852
497.122162	1106.739380	23866.482422	20144.947266	83.648605
497.475098	1108.546021	23682.890625	20067.281250	83.983543
497.828003	1110.116089	23611.398438	20081.865234	84.314079
498.180847	1113.492676	23576.253906	20118.189453	84.605347
498.533661	1111.470947	23520.783203	20135.701172	84.894310
498.886444	1110.008545	23454.603516	20140.648438	85.168877
499.239136	1108.137207	23350.849609	20102.470703	85.395760
499.591827	1108.309448	23151.341797	19987.445313	85.646729
499.944427	1106.911377	22863.435547	19796.626953	85.903961
500.297089	1107.255493	22542.361328	19555.433594	86.065254
500.649628	1106.051025	22189.027344	19304.414063	86.317810
501.002136	1102.846436	21837.843750	19044.445313	86.528099
501.354584	1103.147461	21511.783203	18810.437500	86.763702
501.707001	1102.201172	21173.849609	18560.708984	86.980934
502.059387	1099.383545	20893.191406	18369.310547	87.249138
502.411682	1101.448364	20655.591797	18197.976563	87.431740
502.764038	1102.609619	20481.121094	18062.625000	87.519699
503.116302	1102.975464	20345.273438	17969.257813	87.652122
503.468475	1101.942871	20269.974609	17928.931641	87.786736
503.820709	1102.222534	20235.583984	17922.953125	87.913094
504.172852	1102.007446	20195.921875	17917.273438	88.066101
504.524902	1101.706421	20187.039063	17937.814453	88.214905
504.876953	1104.502441	20195.298828	17957.171875	88.276405
505.228912	1104.523926	20207.902344	17973.517578	88.303719
505.580872	1104.846680	20235.173828	17996.511719	88.297829
505.932770	1104.179810	20222.357422	17984.378906	88.293976
506.284698	1105.083252	20206.095703	17975.582031	88.322540
506.636505	1105.986572	20195.986328	17982.400391	88.404472
506.988342	1107.750244	20178.437500	17974.205078	88.441780
507.340088	1109.298828	20172.994141	17969.732422	88.442627
507.691772	1108.632080	20186.783203	17968.503906	88.372673
508.043396	1108.374023	20231.798828	18010.251953	88.383110
508.395050	1108.309448	20304.562500	18062.667969	88.321190
508.746582	1108.567505	20410.357422	18149.173828	88.285110
509.098114	1109.277222	20540.654297	18252.648438	88.225197
509.449646	1110.589355	20681.705078	18365.328125	88.164307
509.801086	1110.718262	20872.544922	18508.593750	88.037788
510.152557	1106.911499	21057.253906	18643.513672	87.901260
510.503906	1106.889893	21230.759766	18781.123047	87.827209
510.855194	1106.502808	21417.083984	18921.849609	87.714607
511.206482	1105.750000	21591.601563	19060.296875	87.643646
511.557709	1105.427368	21770.718750	19203.259766	87.575981
511.908844	1106.352295	21947.601563	19321.210938	87.398117
512.260010	1105.728516	22066.992188	19402.144531	87.286797
512.611206	1104.265869	22153.345703	19445.117188	87.133743
512.962219	1102.201050	22215.742188	19463.013672	86.962257
513.313232	1101.190308	22258.716797	19468.949219	86.814301
513.664246	1102.717285	22252.607422	19438.363281	86.693810
514.015137	1105.061646	22230.433594	19390.230469	86.555489
514.366028	1104.287354	22204.279297	19328.998047	86.373070
514.716919	1105.083252	22142.960938	19236.642578	86.185303
515.067688	1104.287354	22058.132813	19117.488281	85.966087
515.418396	1105.233643	21980.056641	18997.904297	85.714119
515.769104	1106.631714	21921.296875	18900.320313	85.486305
516.119812	1106.782227	21914.371094	18848.572266	85.265953
516.470459	1105.771362	21984.335938	18859.173828	85.031723
516.821106	1106.416504	22125.904297	18933.742188	84.813324
517.171631	1105.448730	22377.761719	19101.634766	84.599106
517.522095	1105.405762	22750.236328	19345.492188	84.269943
517.872559	1104.738892	23238.060547	19709.279297	84.056702
518.222961	1104.244263	23769.632813	20086.638672	83.750580
518.573364	1101.383789	24282.062500	20455.330078	83.491707
518.923645	1102.975464	24744.054688	20788.382813	83.267807
519.273987	1103.943237	25128.748047	21056.156250	83.048386
519.624207	1101.577393	25405.705078	21225.748047	82.801453
519.974487	1101.835449	25611.494141	21338.408203	82.565704
520.324646	1101.706543	25695.806641	21352.152344	82.338631
520.674744	1100.480469	25692.968750	21291.929688	82.104134
521.024780	1102.523682	25550.867188	21115.542969	81.858383
521.374878	1101.641846	25293.994141	20863.314453	81.685616
521.724792	1101.792480	24944.507813	20503.636719	81.374306
522.074707	1101.577271	24560.783203	20127.654297	81.102814
522.424744	1103.039917	24208.351563	19774.945313	80.812180
522.774536	1102.394653	23953.613281	19485.791016	80.448212
523.124329	1103.039917	23763.244141	19252.343750	80.093292
523.474182	1103.340942	23688.095703	19137.382813	79.850510
523.823914	1103.556030	23738.960938	19100.410156	79.507545
524.173523	1104.975464	23934.019531	19182.099609	79.184761
524.523132	1105.706909	24293.826172	19387.435547	78.840927
524.872803	1105.491821	24804.900391	19714.164063	78.519562
525.222290	1106.631714	25473.820313	20159.960938	78.192566
525.571777	1105.964966	26219.763672	20675.746094	77.924416
525.921326	1106.631714	27019.648438	21236.933594	77.684135
526.270752	1107.104980	27872.054688	21831.673828	77.431747
526.620178	1107.406006	28809.162109	22485.302734	77.171631
526.969482	1107.578247	29981.929688	23313.554688	76.905540
527.318787	1107.148071	31455.748047	24360.093750	76.619499
527.668030	1106.975952	33370.007813	25760.505859	76.414177
528.017212	1107.707153	35566.496094	27408.062500	76.324081
528.366394	1109.341675	37748.785156	29087.949219	76.361984
528.715515	1108.373901	39693.691406	30542.298828	76.282715
529.064636	1106.459595	41203.746094	31624.539063	76.110092
529.413635	1107.664063	42295.300781	32367.298828	75.895676
529.762695	1108.395386	43001.128906	32783.691406	75.610481
530.111633	1106.954224	43399.035156	32980.902344	75.366226
530.460510	1106.889771	43443.382813	32916.785156	75.135880
530.809387	1104.093750	43059.722656	32537.318359	74.920158
531.158142	1105.986450	42228.503906	31811.125000	74.667465
531.506958	1105.577881	40857.835938	30667.025391	74.364197
531.855652	1105.212280	39192.707031	29252.742188	73.902283
532.204407	1104.760620	37589.753906	27829.726563	73.249207
532.552979	1102.523682	36340.593750	26707.242188	72.662094
532.901611	1103.921753	35470.761719	25918.373047	72.204636
533.250183	1102.480591	34922.453125	25374.435547	71.768112
533.598755	1100.609497	34514.773438	24981.394531	71.469048
533.947205	1102.308594	34183.910156	24636.773438	71.140648
534.295593	1101.770996	33907.839844	24355.939453	70.883736
534.643982	1102.114990	33682.816406	24107.675781	70.611008
534.992249	1107.513550	33476.277344	23881.644531	70.358360
535.340576	1110.245117	33294.105469	23655.425781	70.051201
535.688843	1109.234253	33078.164063	23401.373047	69.730637
536.037048	1109.771973	32712.574219	23044.404297	69.407242
536.385315	1112.890625	32123.939453	22524.361328	69.044655
536.733398	1109.169800	31376.382813	21886.324219	68.645744
537.081421	1110.718262	30556.279297	21214.132813	68.273155
537.429443	1110.739746	29809.585938	20598.035156	67.902710
537.777466	1111.557129	29146.726563	20056.162109	67.574425
538.125427	1112.395874	28592.144531	19587.091797	67.230225
538.473267	1112.288330	28157.917969	19209.154297	66.912346
538.821167	1104.007813	27804.673828	18882.166016	66.583199
539.169006	1101.491333	27504.570313	18612.562500	66.322083
539.516846	1101.491455	27271.681641	18376.232422	66.009232
539.864502	1099.620117	27216.148438	18259.185547	65.703857
540.212219	1097.641357	27426.560547	18313.386719	65.387207
540.559875	1099.232910	28027.324219	18618.974609	65.061211
540.907410	1097.469238	28949.179688	19134.781250	64.761955
541.254944	1097.340210	29996.533203	19723.562500	64.452393
541.602478	1096.157349	30989.560547	20295.072266	64.224586
541.949951	1095.877686	31891.351563	20792.511719	63.959511
542.297363	1096.522949	32669.382813	21213.574219	63.716278
542.644714	1097.899536	33349.683594	21572.304688	63.483013
542.992126	1098.265137	33818.625000	21786.527344	63.227489
543.339355	1097.146606	34032.734375	21850.017578	63.010483
543.686646	1096.716553	33859.851563	21671.265625	62.797863
544.033813	1097.447754	33294.101563	21243.126953	62.570724
544.380920	1099.942871	32311.314453	20543.513672	62.296432
544.728027	1102.717285	31028.962891	19665.466797	62.028328
545.075134	1101.878540	29717.748047	18776.111328	61.763744
545.422180	1101.319214	28556.460938	17958.806641	61.400112
545.769165	1101.168701	27565.716797	17261.558594	61.064293
546.116150	1100.738403	26715.267578	16663.613281	60.757996
546.463013	1100.781494	25948.162109	16114.792969	60.424927
546.809875	1100.437378	25327.935547	15674.306641	60.154247
547.156677	1101.620361	24759.798828	15272.255859	59.897411
547.503418	1100.050293	24299.312500	14925.872070	59.595959
547.850098	1100.781616	23867.107422	14607.272461	59.326618
548.196777	1100.179321	23446.021484	14310.655273	59.118271
548.543396	1096.974609	23044.662109	14012.509766	58.846905
548.890015	1101.319214	22595.550781	13687.846680	58.557697
549.236633	1102.760254	22087.208984	13343.740234	58.333580
549.583069	1101.985962	21522.902344	12966.938477	58.101959
549.929504	1102.416138	20921.300781	12558.696289	57.804867
550.275879	1100.760132	20313.160156	12165.528320	57.591808
550.622253	1100.416016	19706.720703	11758.037109	57.279621
550.968567	1100.329956	19190.935547	11410.166016	56.989998
551.314819	1102.996948	18745.742188	11110.946289	56.725574
551.661072	1103.319580	18430.111328	10878.531250	56.416748
552.007263	1102.136719	18231.054688	10709.154297	56.086540
552.353394	1105.448975	18094.607422	10583.612305	55.789482
552.699524	1103.706665	18014.039063	10492.654297	55.521957
553.045593	1101.190308	17973.261719	10422.301758	55.245800
553.391602	1101.405396	17957.236328	10368.897461	54.980930
553.737549	1102.652832	17924.416016	10315.772461	54.769043
554.083435	1104.545410	17887.830078	10250.043945	54.491703
554.429321	1106.481201	17838.468750	10180.766602	54.233154
554.775146	1105.792847	17752.048828	10092.992188	53.989315
555.120972	1104.524048	17666.900391	10006.508789	53.748230
555.466675	1104.437866	17512.492188	9886.063477	53.520214
555.812439	1107.040405	17331.201172	9750.949219	53.278004
556.158081	1106.223145	17119.562500	9599.296875	53.037495
556.503662	1108.008301	16909.386719	9444.416992	52.757473
556.849182	1109.427734	16702.757813	9295.387695	52.496548
557.194702	1110.632202	16524.908203	9159.305664	52.215706
557.540161	1110.288086	16370.159180	9029.355469	51.894718
557.885620	1112.653931	16227.881836	8914.975586	51.618950
558.231018	1111.643066	16102.038086	8810.510742	51.358673
558.576355	1110.567627	15996.025391	8725.338867	51.155777
558.921692	1110.524658	15889.324219	8641.672852	50.959133
559.266968	1109.255737	15814.516602	8566.351563	50.710396
559.612183	1106.115601	15738.808594	8496.536133	50.506222
559.957336	1104.007813	15700.633789	8441.303711	50.267067
560.302429	1100.179321	15672.478516	8401.879883	50.106716
560.647522	1099.405151	15656.972656	8375.102539	49.978798
560.992554	1098.781372	15642.175781	8341.140625	49.798275
561.337524	1099.985840	15644.003906	8323.633789	49.667488
561.682434	1100.910645	15641.809570	8300.749023	49.514397
562.027344	1101.319214	15641.678711	8281.735352	49.382660
562.372253	1103.921753	15653.250000	8260.485352	49.188274
562.717102	1105.405762	15654.325195	8227.878906	48.955341
563.061829	1107.384521	15657.531250	8209.252930	48.809601
563.406494	1109.642822	15653.788086	8185.187012	48.648743
563.751160	1112.245239	15640.667969	8161.334473	48.519302
564.095825	1114.138062	15643.056641	8135.524902	48.326973
564.440369	1115.557495	15647.035156	8108.401855	48.122047
564.784973	1115.794067	15681.599609	8102.637695	47.967438
565.129456	1114.546753	15765.953125	8122.490234	47.831200
565.473877	1109.212646	15897.497070	8160.301270	47.680237
565.818298	1108.911743	16063.000000	8218.759766	47.544514
566.162659	1109.858154	16232.483398	8280.961914	47.419701
566.507019	1106.674683	16407.216797	8352.303711	47.355373
566.851196	1103.749634	16544.824219	8395.727539	47.224552
567.195435	1101.319214	16677.636719	8434.636719	47.079918
567.539612	1098.845825	16770.142578	8458.446289	46.962296
567.883789	1098.437378	16815.396484	8472.511719	46.917946
568.227844	1098.394287	16842.580078	8466.447266	46.798565
568.571960	1097.835083	16832.666016	8451.499023	46.734940
568.915955	1096.867065	16774.658203	8403.062500	46.602200
569.259888	1097.835083	16687.314453	8348.969727	46.513000
569.603821	1097.146729	16574.826172	8272.121094	46.356915
569.947632	1096.200439	16458.447266	8206.736328	46.285782
570.291504	1100.308472	16368.566406	8143.481445	46.129513
570.635193	1103.319458	16348.822266	8117.327637	46.007065
570.979004	1106.567261	16355.253906	8114.618652	45.958393
571.322632	1108.008179	16430.789063	8143.848145	45.917511
571.666321	1110.029907	16548.783203	8177.853027	45.779755
572.009949	1110.116089	16681.423828	8220.394531	45.662693
572.353455	1108.631958	16804.339844	8260.700195	45.567032
572.696960	1108.352417	16900.718750	8293.824219	45.499653
573.040405	1110.395630	16978.382813	8312.621094	45.388401
573.383850	1111.169922	17033.099609	8333.678711	45.362019
573.727173	1111.148438	17071.361328	8335.011719	45.261696
574.070557	1112.223755	17088.847656	8333.591797	45.199589
574.413879	1111.428101	17074.267578	8320.965820	45.164505
574.757019	1108.868530	17051.748047	8295.758789	45.078995
575.100281	1107.255371	16966.144531	8243.967773	45.001339
575.443420	1104.072266	16850.496094	8182.712402	44.953953
575.786499	1101.082642	16706.648438	8113.306152	44.934120
576.129517	1102.502197	16550.652344	8027.898438	44.829941
576.472534	1103.147461	16393.923828	7942.468750	44.728413
576.815491	1100.071777	16227.774414	7856.973633	44.665749
577.158447	1101.813965	16047.149414	7766.898438	44.596416
577.501343	1102.308716	15860.006836	7672.606445	44.521156
577.844116	1100.007202	15642.734375	7567.754395	44.474098
578.187012	1096.307861	15400.768555	7450.406738	44.420399
578.529724	1095.512085	15125.292969	7316.971680	44.344666
578.872375	1097.189575	14852.269531	7185.665527	44.263474
579.215027	1099.619995	14596.324219	7057.304688	44.141773
579.557617	1101.663330	14341.688477	6935.181641	44.059723
579.900146	1100.996582	14109.167969	6825.812988	44.009384
580.242676	1100.286743	13887.053711	6722.918457	43.972271
580.585144	1102.416138	13688.233398	6626.820801	43.893890
580.927612	1097.211182	13509.136719	6534.809570	43.809467
581.269958	1098.265137	13349.159180	6458.413574	43.753120
581.612305	1096.544434	13215.940430	6397.911133	43.742828
581.954590	1099.426636	13088.009766	6339.064453	43.705231
582.296814	1099.620117	12997.846680	6290.004883	43.623180
582.639038	1099.598633	12918.224609	6249.957520	43.578323
582.981140	1100.867676	12828.277344	6214.103027	43.600719
583.323242	1100.093384	12760.247070	6180.615234	43.571655
583.665283	1101.598755	12687.206055	6142.781738	43.512463
584.007324	1102.459106	12630.016602	6117.230957	43.502468
584.349304	1101.469849	12565.449219	6088.259766	43.499641
584.691284	1104.825073	12509.077148	6066.536133	43.507553
585.033142	1103.749634	12446.015625	6037.715332	43.500710
585.374939	1105.620972	12396.288086	6011.002930	43.446342
585.716736	1106.287598	12363.918945	5986.634277	43.351456
586.058411	1106.631714	12314.062500	5965.879395	43.357372
586.400085	1105.169312	12271.843750	5941.833008	43.313374
586.741760	1102.480713	12244.743164	5922.647949	43.260216
587.083374	1103.771240	12229.579102	5913.765137	43.232765
587.424988	1101.233276	12208.243164	5907.678711	43.273983
587.766541	1101.211792	12204.802734	5905.076172	43.264061
588.107971	1101.792480	12225.365234	5912.367188	43.246670
588.449341	1100.975098	12243.366211	5917.098633	43.223431
588.790710	1099.878174	12287.006836	5928.304199	43.160545
589.132080	1098.135986	12324.086914	5938.993652	43.122025
589.473267	1096.931519	12371.899414	5952.500977	43.065041
589.814514	1098.501831	12421.753906	5977.601074	43.089203
590.155762	1099.361938	12476.449219	5998.570801	43.062069
590.496948	1099.598755	12504.647461	6008.723145	43.043434
590.838013	1098.372803	12512.971680	6011.067383	43.038696
591.179077	1100.200928	12532.156250	6016.444824	43.004402
591.520081	1099.061035	12520.821289	6005.453125	42.956535
591.861023	1101.039673	12486.795898	5991.537598	42.952774
592.201965	1101.813965	12456.897461	5979.816895	42.958755
592.542847	1102.975464	12411.947266	5961.147949	42.958569
592.883606	1104.287231	12367.211914	5941.015625	42.943806
593.224365	1104.803589	12327.699219	5934.886230	43.037758
593.565125	1104.201294	12297.759766	5919.378418	43.017395
593.905823	1104.997192	12292.082031	5916.539551	43.009796
594.246521	1104.825073	12300.319336	5917.980469	42.991898
594.587097	1105.405762	12337.787109	5933.530762	42.983986
594.927612	1103.663574	12377.016602	5948.586426	42.976768
595.268127	1107.470581	12465.393555	5986.462402	42.956726
595.608582	1104.523926	12591.065430	6038.081543	42.950768
595.948975	1104.480957	12754.353516	6103.831543	42.913349
596.289307	1102.609863	12963.261719	6189.025391	42.884789
596.629700	1103.685181	13186.622070	6280.649902	42.845253
596.969971	1103.728271	13371.160156	6359.369141	42.842224
597.310242	1100.889160	13526.062500	6422.666992	42.830612
597.650391	1100.157837	13605.190430	6455.509277	42.825573
597.990540	1099.878174	13650.722656	6476.522949	42.838905
598.330627	1100.802979	13634.741211	6469.683105	42.834740
598.670654	1102.459106	13597.016602	6450.820801	42.805531
599.010620	1100.781494	13495.285156	6405.051270	42.795334
599.350525	1102.394653	13339.931641	6340.097168	42.800301
599.690491	1102.889282	13141.822266	6249.118652	42.746559
600.030334	1104.631348	12888.436523	6137.900391	42.713448
600.370178	1103.706665	12608.874023	6018.595215	42.718967
600.710022	1103.340942	12353.983398	5897.828125	42.615231
601.049683	1105.448853	12123.308594	5795.729004	42.569798
601.389343	1106.179932	11952.103516	5718.773926	42.528362
601.728943	1108.804077	11825.530273	5665.304199	42.517647
602.068542	1109.126709	11770.749023	5638.612793	42.484028
602.408081	1109.599854	11772.899414	5641.085938	42.496098
602.747498	1109.664429	11851.620117	5665.067383	42.407574
603.087036	1111.686157	11982.431641	5711.890625	42.317287
603.426453	1112.976685	12153.119141	5785.835449	42.326073
603.765869	1110.202148	12362.887695	5873.716797	42.332249
604.105103	1110.524658	12622.231445	5977.987793	42.282719
604.444336	1110.911987	12888.199219	6094.259766	42.313206
604.783569	1111.041016	13144.318359	6201.908203	42.306572
605.122681	1111.213013	13344.558594	6290.521484	42.337631
605.461792	1109.836426	13510.168945	6356.185547	42.308136
605.800842	1108.546021	13610.160156	6392.534180	42.266449
606.139954	1107.320068	13633.516602	6395.050293	42.213379
606.478943	1104.997192	13588.285156	6380.316895	42.259056
606.817932	1103.018433	13471.905273	6333.945801	42.291012
607.156799	1099.942871	13316.102539	6262.667480	42.261436
607.495605	1102.222656	13124.227539	6181.044922	42.246052
607.834412	1102.373169	12890.758789	6080.903320	42.232502
608.173157	1102.824829	12666.816406	5985.730957	42.225094
608.511841	1104.631470	12488.428711	5908.839355	42.202160
608.850464	1101.598877	12393.342773	5859.951172	42.140102
609.189148	1100.867676	12331.291016	5832.098633	42.128696
609.527710	1102.373169	12310.579102	5820.355957	42.094006
609.866211	1103.620605	12299.610352	5816.978516	42.098625
610.204712	1106.588745	12302.170898	5811.493652	42.024654
610.543091	1107.470581	12317.785156	5811.536621	41.961945
610.881409	1108.008301	12304.255859	5805.772949	41.958382
611.219788	1108.588989	12272.855469	5784.931641	41.886700
611.558044	1109.341797	12214.374023	5759.422852	41.873638
611.896301	1111.298950	12105.306641	5714.041016	41.865917
612.234436	1111.277588	11950.253906	5650.462891	41.878361
612.572693	1114.869385	11745.735352	5563.700195	41.848248
612.910767	1116.761963	11511.339844	5461.902832	41.801991
613.248840	1116.267456	11275.934570	5360.233887	41.772690
613.586792	1117.020264	11057.434570	5266.029297	41.738792
613.924805	1115.708252	10842.978516	5174.985352	41.730896
614.262695	1114.482300	10645.383789	5093.921387	41.753017
614.600525	1114.396240	10479.063477	5024.170410	41.750275
614.938293	1115.407104	10334.011719	4966.958984	41.780205
615.276123	1115.105957	10216.600586	4916.867188	41.770737
615.613892	1112.697144	10119.468750	4870.151367	41.718102
615.951538	1112.869263	10035.264648	4831.330078	41.675591
616.289185	1111.191528	9964.289063	4803.067871	41.701523
616.626770	1109.664429	9918.842773	4785.969238	41.732662
616.964294	1106.266113	9871.631836	4768.547363	41.781273
617.301819	1105.298218	9836.186523	4753.233887	41.781952
617.639221	1104.244385	9811.043945	4751.125488	41.885437
617.976624	1103.104370	9794.525391	4742.372559	41.871956
618.313965	1104.717651	9778.867188	4737.103027	41.875980
618.651306	1103.104370	9769.812500	4734.951660	41.905727
618.988525	1100.910645	9749.508789	4726.692871	41.923355
619.325684	1100.523560	9738.023438	4727.101563	41.986431
619.662964	1097.469360	9723.526367	4723.101074	42.031162
620.000000	1097.878052	9699.093750	4712.755859	42.027523
620.337097	1097.490845	9680.337891	4696.474609	41.932285
620.674133	1099.383423	9650.034180	4685.311523	41.937492
621.011047	1099.835083	9618.074219	4674.320801	41.962730
621.347961	1100.329956	9586.823242	4658.146973	41.923286
621.684875	1100.802979	9554.108398	4643.048340	41.903671
622.021729	1100.179321	9526.449219	4627.197266	41.857410
622.358521	1098.867310	9485.691406	4610.033203	41.865265
622.695313	1100.781494	9469.496094	4602.677734	41.845089
623.031982	1102.480591	9450.352539	4590.224609	41.780037
623.368652	1102.437622	9430.759766	4576.480957	41.713604
623.705261	1100.351440	9426.780273	4574.437988	41.723606
624.041748	1101.792480	9415.875977	4574.975586	41.774693
624.378296	1102.265625	9427.769531	4577.427734	41.741161
624.714722	1100.846191	9451.643555	4583.514160	41.704617
625.051147	1101.620361	9482.874023	4597.085938	41.705761
625.387512	1103.104492	9537.332031	4618.980957	41.685814
625.723877	1101.104248	9609.727539	4651.845215	41.731087
626.060120	1104.373535	9705.783203	4690.688965	41.694504
626.396301	1103.405518	9810.548828	4736.350586	41.723728
626.732483	1102.480713	9923.336914	4781.129883	41.703991
627.068604	1105.599365	10026.339844	4829.265137	41.741669
627.404724	1107.578125	10120.566406	4864.774902	41.686470
627.740662	1109.019043	10197.843750	4897.273926	41.680363
628.076721	1108.653442	10251.227539	4916.394531	41.648457
628.412720	1110.137573	10279.768555	4930.159668	41.659496
628.748596	1111.277466	10278.176758	4931.084473	41.669567
629.084473	1110.180542	10255.765625	4925.556641	41.718227
629.420227	1110.997803	10199.952148	4902.220215	41.712418
629.755981	1109.148071	10126.933594	4871.700684	41.723690
630.091675	1110.825684	10019.027344	4824.597656	41.689358
630.427307	1112.051758	9896.172852	4774.247559	41.691090
630.762939	1109.857910	9780.782227	4719.918457	41.634094
631.098450	1109.857910	9658.659180	4671.933594	41.667549
631.434021	1108.610474	9552.324219	4625.153320	41.646873
631.769470	1110.288208	9450.181641	4584.245605	41.654697
632.104980	1108.868652	9358.600586	4545.681641	41.659691
632.440308	1109.019165	9287.387695	4508.838379	41.570873
632.775635	1110.460083	9221.637695	4479.781250	41.539238
633.110901	1110.718262	9172.383789	4459.692871	41.541969
633.446106	1108.803955	9141.413086	4440.636719	41.478836
633.781250	1106.395020	9119.647461	4429.430664	41.469250
634.116394	1104.351685	9106.871094	4420.182129	41.434834
634.451538	1103.964722	9088.071289	4417.171387	41.497524
634.786560	1104.889526	9066.843750	4410.632813	41.519245
635.121582	1104.158325	9036.861328	4398.458984	41.528099
635.456543	1102.867920	9013.956055	4389.425293	41.543686
635.791443	1103.405518	8978.316406	4371.745605	41.503201
636.126221	1102.115112	8944.291016	4359.873047	41.541504
636.461060	1101.082520	8894.779297	4337.935547	41.531677
636.795776	1102.437622	8839.051758	4312.555664	41.492546
637.130493	1103.986206	8763.537109	4282.616699	41.498913
637.465210	1104.932495	8679.355469	4246.784668	41.479755
637.799805	1104.201294	8598.743164	4211.984375	41.467285
638.134399	1105.126099	8515.613281	4175.377441	41.431168
638.468933	1104.739136	8442.809570	4142.319824	41.394814
638.803345	1105.233765	8369.079102	4111.562988	41.387569
639.137756	1106.180176	8300.727539	4081.796143	41.359322
639.472168	1108.158936	8234.504883	4056.976318	41.379097
639.806519	1108.588989	8162.990234	4029.381104	41.403824
640.140747	1109.148193	8101.584473	4002.926025	41.384399
640.474976	1109.277222	8037.254395	3972.664307	41.330784
640.809204	1111.836792	7979.053223	3948.811768	41.311863
641.143372	1110.374146	7928.143555	3929.626465	41.351536
641.477478	1114.718750	7877.126465	3908.204834	41.309044
641.811462	1117.127686	7829.335938	3889.406982	41.302048
642.145447	1116.697510	7787.459473	3870.953125	41.288471
642.479370	1115.751099	7747.927734	3856.456299	41.324368
642.813293	1114.740356	7702.352051	3839.077881	41.355465
643.147095	1111.320435	7667.423340	3824.774902	41.388226
643.480957	1110.481567	7625.482422	3808.859375	41.417919
643.814758	1107.793091	7583.713867	3796.492188	41.518406
644.148438	1106.223145	7555.732422	3790.642090	41.622066
644.482117	1103.599121	7518.501953	3781.329102	41.742332
644.815735	1105.448853	7490.928223	3771.843994	41.757160
645.149292	1101.555786	7467.140625	3763.434570	41.816723
645.482788	1098.996460	7448.965820	3754.702393	41.822346
645.816223	1098.566284	7431.716797	3749.539795	41.858688
646.149658	1097.705933	7428.146484	3747.561035	41.858936
646.483032	1098.652222	7430.468750	3748.615479	41.851551
646.816345	1100.630981	7431.608887	3746.722656	41.795940
647.149658	1102.244019	7439.351563	3748.894531	41.764328
647.482849	1102.910889	7446.212891	3748.378662	41.704903
647.816101	1104.825073	7450.600098	3752.012695	41.715748
648.149231	1104.932617	7464.882324	3753.604492	41.646114
648.482239	1106.674683	7469.527832	3756.293213	41.641991
648.815247	1107.513672	7467.269043	3757.045898	41.660915
649.148254	1106.050903	7468.194824	3757.411865	41.674015
649.481201	1104.588501	7461.182617	3755.260986	41.699570
649.814087	1106.631714	7451.654785	3754.508057	41.731552
650.146973	1107.018799	7444.514160	3751.840820	41.732925
650.479736	1107.449097	7438.620605	3751.906006	41.768845
650.812500	1109.384888	7438.943359	3752.593994	41.759769
651.145203	1110.481689	7432.791016	3754.142334	41.814793
651.477844	1107.965332	7429.307617	3750.722900	41.806904
651.810486	1108.137329	7416.251953	3743.732666	41.781029
652.143005	1105.083130	7405.906738	3736.549072	41.763840
652.475525	1104.437988	7396.120605	3740.226807	41.893227
652.807922	1106.266113	7389.001465	3739.968750	41.919682
653.140381	1106.610229	7376.376465	3737.431152	41.960430
653.472717	1103.620605	7354.674805	3727.838867	41.980412
653.805115	1103.018433	7323.789551	3718.675781	42.047153
654.137390	1102.824829	7287.226074	3702.931885	42.042984
654.469543	1097.684448	7250.768555	3688.628906	42.108059
654.801758	1098.329590	7218.700195	3674.842285	42.097332
655.133850	1099.405151	7179.599609	3662.002197	42.146633
655.465881	1098.888794	7139.163574	3656.926025	42.349682
655.797974	1096.974731	7113.440918	3652.710693	42.479019
656.129944	1097.555420	7086.577637	3638.881104	42.433064
656.461853	1099.448120	7063.047363	3632.062744	42.467892
656.793762	1102.738892	7047.625488	3629.438965	42.502075
657.125610	1104.373535	7052.852051	3630.922852	42.473873
657.457397	1103.556152	7071.069824	3641.676758	42.532295
657.789124	1103.534668	7116.387695	3662.367432	42.556049
658.120789	1105.749878	7179.706543	3687.768799	42.509674
658.452393	1106.997437	7273.008301	3725.924072	42.473598
658.783997	1105.943481	7375.924805	3769.241211	42.476967
659.115540	1106.696167	7501.123047	3818.731201	42.412483
659.447083	1107.793091	7609.265625	3861.704102	42.358265
659.778503	1107.233887	7715.730957	3909.085938	42.397720
660.109924	1107.018799	7793.073730	3946.961914	42.475620
660.441284	1105.513306	7858.179199	3975.331299	42.499035
660.772522	1106.760864	7893.945313	3995.291260	42.558594
661.103760	1107.922241	7915.217285	3999.613525	42.479301
661.434998	1106.481201	7898.011230	3998.667236	42.585190
661.766113	1106.008057	7844.434570	3978.622070	42.630337
662.097229	1102.932495	7755.154297	3942.273438	42.682594
662.428345	1104.351929	7642.860840	3896.956299	42.710114
662.759277	1103.835815	7506.284180	3839.830566	42.733570
663.090332	1106.051025	7372.504883	3786.706055	42.777863
663.421204	1105.964966	7237.068359	3724.978027	42.716831
663.752075	1104.201416	7111.053223	3664.970459	42.630802
664.082886	1103.491699	6993.533203	3614.082275	42.624329
664.413635	1103.147461	6897.714355	3569.926025	42.570541
664.744324	1101.986084	6798.562988	3532.609619	42.668140
665.075012	1102.738770	6720.575195	3496.368652	42.607681
665.405640	1101.405273	6651.684082	3468.967285	42.656631
665.736206	1103.018433	6597.204590	3451.244629	42.740200
666.066772	1102.287109	6552.811035	3434.532959	42.789387
666.397278	1104.545532	6512.850098	3420.810791	42.827934
666.727661	1104.760620	6481.276367	3408.830566	42.854332
667.058044	1107.298584	6457.229980	3402.507568	42.901649
667.388306	1106.244629	6443.937988	3400.378662	42.979877
667.718567	1108.008179	6436.582520	3394.119629	42.902870
668.048828	1108.524292	6420.128418	3393.302490	43.014847
668.378967	1109.685669	6420.214355	3395.410156	43.041374
668.709167	1110.761108	6417.482910	3393.861572	43.022808
669.039246	1113.793823	6422.258301	3399.410400	43.056080
669.369263	1113.578735	6419.311035	3398.076660	43.057167
669.699341	1114.869263	6418.881348	3395.753906	43.003006
670.029236	1111.557129	6416.343262	3391.796143	42.984562
670.359131	1111.062500	6409.267090	3391.366455	43.039185
670.688965	1111.105347	6394.383301	3386.677490	43.071220
671.018738	1110.804321	6371.907715	3376.977539	43.074108
671.348511	1109.513794	6346.979980	3373.127930	43.219643
671.678223	1109.126831	6323.922363	3361.212402	43.186459
672.007813	1109.793457	6291.059082	3347.489990	43.188221
672.337341	1109.771973	6263.012695	3338.004883	43.239449
672.666992	1107.126465	6228.685547	3320.110107	43.209179
672.996460	1106.567261	6194.315918	3303.656494	43.183922
673.325867	1106.674683	6163.687988	3287.718994	43.129105
673.655273	1107.664063	6137.255859	3277.072754	43.132896
673.984619	1108.137207	6105.014160	3259.500732	43.054161
674.314026	1106.352173	6081.786133	3247.068848	43.025730
674.643250	1109.169678	6066.751465	3240.014160	42.981529
674.972412	1108.911621	6044.662598	3227.991211	42.933277
675.301514	1109.836426	6022.487793	3217.194336	42.896549
675.630676	1108.115723	6002.120117	3205.472412	42.855637
675.959778	1108.997559	5975.536133	3195.557129	42.875641
676.288757	1110.331177	5957.340332	3188.136719	42.867786
676.617737	1110.589233	5939.982910	3178.458496	42.818401
676.946594	1110.481689	5927.228516	3173.468506	42.829460
677.275513	1112.159424	5917.485840	3169.984131	42.823830
677.604309	1110.933472	5916.410645	3166.414063	42.773705
677.933044	1111.514160	5917.894043	3165.875977	42.742393
678.261780	1111.105347	5922.927246	3166.757813	42.720875
678.590393	1111.083862	5944.069824	3171.382080	42.629929
678.919067	1111.298950	5971.642578	3182.372803	42.611671
679.247620	1111.557129	6012.680176	3200.267822	42.616982
679.576111	1109.234253	6065.073730	3216.699463	42.524891
679.904541	1110.481689	6116.520508	3237.626709	42.491577
680.232971	1110.331177	6170.592285	3261.974121	42.520393
680.561401	1111.514160	6222.878418	3285.245850	42.527428
680.889709	1108.029785	6266.690430	3301.290771	42.516094
681.217957	1108.847168	6304.565918	3317.271240	42.504688
681.546143	1107.147949	6336.118652	3334.068848	42.588131
681.874390	1106.567261	6363.929199	3346.737305	42.610153
682.202454	1107.104980	6377.048340	3353.834473	42.632896
682.530579	1105.362793	6373.069824	3354.006836	42.687340
682.858521	1104.653076	6347.904785	3342.371094	42.678055
683.186523	1104.459473	6305.984863	3326.713379	42.723118
683.514465	1104.610107	6256.107910	3303.614014	42.686687
683.842346	1107.664185	6199.477051	3275.739258	42.579632
684.170166	1105.814453	6130.351074	3244.402100	42.562881
684.497925	1106.244751	6065.568848	3218.678223	42.595192
684.825623	1107.599609	5997.044922	3187.900146	42.546761
685.153320	1108.868652	5927.315430	3153.250732	42.428238
685.481018	1108.911621	5857.564453	3123.376465	42.421818
685.808533	1108.524414	5790.458984	3094.598633	42.419949
686.136047	1107.836182	5742.517578	3069.606201	42.328041
686.463623	1109.621460	5702.556152	3049.431396	42.234653
686.791016	1110.159058	5668.250488	3037.171875	42.276749
687.118408	1110.503174	5650.915039	3027.428711	42.219196
687.445740	1107.513550	5642.226074	3027.471680	42.339138
687.772949	1108.588989	5639.429688	3026.718994	42.334969
688.100220	1109.642944	5636.375977	3019.986816	42.201382
688.427429	1108.416992	5627.041504	3021.062500	42.328049
688.754517	1108.158813	5621.642578	3018.051025	42.315254
689.081604	1106.674683	5610.265137	3010.695557	42.277843
689.408630	1105.362793	5600.801270	3004.565674	42.247334
689.735657	1105.642456	5574.109863	2994.435303	42.269367
690.062622	1104.050781	5543.417969	2980.756348	42.274170
690.389465	1104.889526	5509.865234	2961.915527	42.157463
690.716248	1103.104370	5459.945313	2941.160156	42.187813
691.043091	1103.534546	5409.895996	2915.285889	42.071514
691.369812	1100.738525	5356.147461	2890.099854	42.049103
691.696533	1100.200806	5301.043457	2868.914795	42.103790
692.023132	1098.609253	5254.887207	2844.416992	42.004116
692.349670	1098.243652	5204.601563	2824.350098	42.034973
692.676270	1099.534058	5159.069824	2801.465820	41.924297
693.002747	1101.018066	5112.289551	2781.484863	41.893620
693.329163	1101.663330	5069.444824	2764.020508	41.896389
693.655518	1103.018433	5035.763672	2750.125977	41.881878
693.981873	1102.695801	5001.974121	2735.672607	41.878948
694.308167	1103.233521	4973.066895	2726.165771	41.938038
694.634399	1104.932617	4942.225098	2714.056641	41.933838
694.960571	1106.739380	4920.630859	2703.926514	41.878147
695.286743	1108.395386	4908.586426	2695.193848	41.755756
695.612854	1112.331421	4894.799805	2690.311768	41.718269
695.938904	1113.944580	4892.305176	2689.279297	41.693604
696.264832	1113.406738	4900.606934	2693.451904	41.720665
696.590820	1113.922974	4914.587891	2699.452637	41.717163
696.916687	1115.148926	4947.494629	2711.862793	41.664139
697.242554	1115.192017	4991.392578	2726.359375	41.565632
697.568359	1114.675781	5060.712891	2752.964844	41.517326
697.894043	1112.761597	5152.788574	2788.410156	41.476173
698.219788	1111.707642	5268.050293	2833.533936	41.426476
698.545349	1111.557129	5390.603027	2884.593994	41.435333
698.870972	1110.460205	5502.703125	2931.825684	41.467773
699.196533	1106.868408	5613.749512	2974.088867	41.430439
699.521973	1106.545776	5703.437988	3010.501709	41.418331
699.847412	1105.835938	5769.488770	3038.505371	41.441109
700.172852	1104.093872	5815.709961	3053.238525	41.368919
700.498169	1101.297852	5836.680176	3059.303955	41.348427
700.823486	1099.813721	5825.216309	3052.937256	41.332428
701.148682	1101.986084	5778.306641	3032.719727	41.287457
701.473816	1105.083252	5696.382813	2996.607910	41.198021
701.799072	1105.879028	5577.120605	2950.408447	41.253181
702.124146	1105.706909	5441.641602	2892.594971	41.211140
702.449158	1104.158325	5300.936523	2833.877930	41.215416
702.774109	1105.964966	5162.812012	2775.978271	41.165298
703.099060	1104.631470	5029.117676	2722.896484	41.235077
703.424011	1104.437866	4913.533203	2671.857910	41.149406
703.748840	1105.792969	4806.660156	2629.702148	41.177082
704.073608	1108.546021	4708.862793	2588.041016	41.093468
704.398315	1109.083740	4621.755371	2557.951416	41.246887
704.723022	1106.072632	4552.198730	2526.893799	41.229519
705.047668	1102.781860	4495.869141	2503.622070	41.285122
705.372253	1099.448120	4451.777832	2480.737549	41.203869
705.696716	1099.146973	4410.267090	2460.154297	41.104137
706.021240	1100.136353	4376.305176	2447.808838	41.135624
706.345764	1099.749146	4348.086914	2438.861572	41.224541
706.670044	1100.222290	4330.923340	2428.688232	41.120049
706.994446	1100.265381	4310.254395	2421.181885	41.150188
707.318665	1101.061035	4298.081055	2415.761719	41.122692
707.642883	1100.157837	4292.510254	2411.997803	41.093204
707.967102	1098.050049	4292.812012	2409.051270	41.035961
708.291260	1099.706177	4293.822266	2411.632324	41.073212
708.615295	1102.050537	4291.865234	2409.933105	41.001835
708.939331	1102.029053	4298.231445	2412.019287	40.985836
709.263367	1101.943115	4309.265137	2419.719238	41.086494
709.587280	1102.115112	4325.977051	2424.407959	41.015804
709.911194	1100.480347	4344.538086	2429.978760	40.982578
710.234985	1099.835205	4365.529785	2436.732178	40.937599
710.558716	1100.717041	4396.308105	2446.324951	40.830547
710.882568	1102.889282	4426.140137	2457.208008	40.752827
711.206177	1102.889404	4457.950195	2467.359619	40.669018
711.529785	1107.513550	4485.265625	2477.705078	40.565189
711.853394	1108.029785	4506.816895	2485.404785	40.525486
712.176880	1105.986450	4521.592285	2493.212402	40.614346
712.500427	1107.707153	4531.206543	2500.374268	40.679634
712.823792	1107.384521	4530.346191	2501.041260	40.714939
713.147217	1106.093872	4531.399902	2497.019287	40.607330
713.470520	1106.825317	4518.710449	2493.491943	40.642242
713.793823	1106.373535	4501.353516	2490.459229	40.768597
714.117004	1108.976074	4472.166992	2484.006836	40.884708
714.440247	1104.868042	4443.690918	2472.005371	40.946690
714.763367	1102.760254	4412.395996	2459.530518	40.994549
715.086365	1100.329834	4382.779297	2450.776855	41.141441
715.409485	1098.609253	4355.507324	2441.377686	41.228447
715.732361	1101.276245	4341.785156	2430.343994	41.014168
716.055298	1100.329956	4323.395996	2420.751465	40.967873
716.378174	1101.147339	4308.361328	2413.008545	40.903454
716.700928	1103.319580	4286.186523	2407.244385	40.966991
717.023804	1104.201294	4265.281250	2400.512451	41.008488
717.346558	1104.007813	4237.363770	2386.015869	40.914856
717.669189	1100.480469	4207.661621	2370.487305	40.873280
717.991760	1101.878418	4171.678711	2355.754150	40.845516
718.314392	1102.996948	4133.953613	2341.644775	40.866566
718.636902	1102.588257	4093.410400	2320.566895	40.723873
718.959351	1103.297974	4045.125000	2302.177490	40.752888
719.281738	1101.061157	3988.989014	2284.132568	40.966103
719.604065	1102.115112	3935.863525	2261.248047	40.904579
719.926453	1102.781738	3882.695557	2241.331787	40.956306
720.248718	1103.340942	3835.851563	2222.684326	40.963917
720.570923	1102.867798	3792.599121	2205.800537	41.005310
720.893066	1102.652710	3753.239746	2189.970459	41.021774
721.215088	1104.437866	3720.697754	2176.248047	40.967270
721.537170	1103.469971	3689.274414	2166.268311	41.101265
721.859192	1106.330566	3656.625000	2156.611084	41.182716
722.181152	1106.352051	3627.287598	2146.717529	41.269024
722.503052	1106.266113	3610.834473	2137.383057	41.169449
722.824951	1106.567139	3591.348389	2130.995117	41.228096
723.146790	1106.352051	3574.485840	2124.650146	41.257816
723.468506	1104.717529	3564.161865	2119.015381	41.240936
723.790161	1102.480591	3549.773438	2113.380127	41.306847
724.111816	1099.899658	3537.320313	2106.820313	41.310909
724.433472	1100.200684	3528.436768	2104.734131	41.368855
724.755005	1098.480225	3522.715820	2101.937744	41.392738
725.076477	1099.146973	3519.081299	2097.163086	41.241455
725.397888	1098.501831	3519.769531	2094.367188	41.129917
725.719299	1097.662964	3522.264160	2094.151855	41.099087
726.040710	1097.060669	3518.736816	2094.818848	41.201138
726.361938	1098.953369	3524.565674	2097.055664	41.148468
726.683167	1100.824585	3530.178955	2105.701904	41.363964
727.004395	1102.179565	3539.061768	2109.444336	41.334156
727.325500	1104.351929	3550.547119	2117.273193	41.408028
727.646667	1107.621094	3572.915771	2125.682617	41.295734
727.967651	1109.707397	3590.681396	2132.500732	41.225475
728.288635	1112.675537	3607.371826	2141.749023	41.250450
728.609558	1112.309814	3623.545898	2150.997803	41.361622
728.930481	1111.514160	3633.159912	2160.418213	41.596012
729.251282	1112.611084	3644.666260	2163.579834	41.506550
729.572021	1112.976685	3656.840088	2165.407959	41.371376
729.892761	1110.266479	3661.572021	2162.999023	41.262501
730.213440	1110.395630	3669.250244	2161.988281	41.096226
730.534119	1109.857910	3674.411865	2165.343506	41.156693
730.854675	1109.148071	3682.327393	2166.311523	41.083942
731.175171	1106.588745	3681.402100	2167.537354	41.204872
731.495605	1104.050781	3687.596680	2173.409180	41.391113
731.816101	1102.050537	3686.951416	2176.527832	41.567448
732.136475	1101.620239	3687.231201	2177.323730	41.603458
732.456787	1100.587891	3693.103027	2176.743164	41.510086
732.777039	1100.308472	3696.952881	2181.818604	41.650295
733.097229	1099.082397	3700.393799	2187.066650	41.824451
733.417480	1099.684692	3703.340088	2193.605225	42.014797
733.737549	1096.501465	3693.898193	2193.454834	42.232800
734.057617	1097.877930	3682.671143	2189.647705	42.238186
734.377563	1097.684326	3662.690430	2184.077148	42.354397
734.697510	1098.802856	3634.579590	2171.624023	42.307396
735.017517	1099.125488	3600.575195	2154.955322	42.208717
735.337341	1096.329346	3568.678711	2140.630859	42.239239
735.657166	1097.533691	3538.072754	2127.080811	42.185234
735.976868	1096.716431	3502.692139	2114.799561	42.314774
736.296631	1096.716553	3467.418701	2102.045410	42.406376
736.616272	1098.458740	3430.403320	2089.118896	42.482147
736.935852	1097.856445	3399.023438	2076.579834	42.531612
737.255371	1099.813721	3378.870361	2065.933350	42.391209
737.574829	1100.996582	3354.071045	2057.545166	42.455257
737.894348	1102.330200	3338.284180	2054.082520	42.565826
738.213745	1103.362427	3335.122803	2053.286621	42.563900
738.533081	1104.803589	3335.595947	2058.341064	42.744339
738.852356	1108.911621	3337.295166	2061.782227	42.760620
739.171570	1108.330811	3338.133789	2067.073486	42.996742
739.490784	1108.115723	3339.123291	2071.590088	43.185616
739.809937	1107.620972	3336.907959	2077.311279	43.497776
740.129028	1108.847046	3333.402344	2079.483398	43.632828
740.447998	1108.115723	3327.681152	2079.461914	43.762901
740.767029	1107.986694	3314.045166	2076.773438	43.914825
741.085999	1105.835938	3303.506348	2073.676514	44.039387
741.404846	1103.362427	3284.750977	2067.310303	44.189644
741.723633	1101.039551	3259.070313	2060.104736	44.441681
742.042358	1101.792358	3229.152588	2048.533447	44.503090
742.361145	1100.867676	3199.106201	2037.349243	44.631798
742.679810	1102.050659	3167.618164	2025.283325	44.696323
742.998413	1104.588501	3138.711670	2013.840942	44.699970
743.316956	1106.287598	3109.288330	1999.172363	44.577354
743.635498	1103.964844	3084.317383	1986.955933	44.587570
743.953979	1106.029663	3061.798584	1980.675659	44.721336
744.272400	1105.341309	3038.871338	1971.814331	44.813011
744.590698	1105.900513	3018.245117	1964.910034	44.919182
744.909058	1105.771484	2999.102539	1960.242676	45.130573
745.227356	1107.470703	2980.326416	1959.339478	45.485020
745.545471	1106.137085	2962.990723	1953.704346	45.645344
745.863586	1105.190674	2947.634277	1952.865601	46.008190
746.181702	1103.599121	2936.062988	1952.500000	46.325653
746.499756	1101.405396	2924.835693	1949.187622	46.493809
746.817810	1100.480469	2914.683838	1950.521362	46.854774
747.135742	1102.394653	2908.962891	1951.596558	47.006355
747.453613	1102.416138	2897.305420	1949.080200	47.170822
747.771423	1103.534546	2891.218750	1954.371094	47.594341
748.089233	1104.072388	2885.540527	1963.340210	48.233688
748.406982	1106.201660	2886.422119	1967.684814	48.391937
748.724609	1106.352173	2889.626953	1973.233887	48.611786
749.042236	1107.814697	2892.078613	1980.331299	48.900646
749.359863	1107.147949	2895.412354	1985.988159	49.144871
749.677429	1107.018799	2894.982178	1992.139404	49.504402
749.994873	1108.352417	2896.057861	2003.474121	50.070984
750.312256	1107.449097	2897.305420	2011.195313	50.492668
750.629639	1105.448730	2894.079346	2018.228394	51.032318
750.946960	1102.394653	2897.348389	2024.487183	51.371380
751.264282	1102.695801	2897.735596	2031.348511	51.734379
751.581482	1099.447998	2897.843018	2034.832886	52.012203
751.898621	1098.394043	2894.767334	2041.414429	52.495792
752.215698	1097.641357	2890.250488	2046.941895	52.956360
752.532715	1095.555054	2890.186035	2056.728027	53.558250
752.849792	1096.608887	2888.551514	2063.094482	53.935074
753.166748	1096.437012	2887.540771	2070.449951	54.380600
753.483643	1097.125122	2882.809082	2077.719727	54.914230
753.800476	1097.404785	2885.948975	2086.860596	55.321854
754.117310	1097.254272	2889.734619	2099.529053	55.915524
754.434082	1100.200806	2885.948975	2111.422852	56.627361
754.750732	1099.405029	2888.422363	2122.176758	57.169472
755.067383	1102.244141	2887.885010	2131.963135	57.666634
755.383911	1102.179565	2885.002930	2143.857178	58.428535
755.700562	1103.448608	2881.453857	2154.288330	59.102173
756.016968	1105.642456	2881.453857	2161.429199	59.453766
756.333435	1105.169189	2877.754395	2172.785400	60.229332
756.649780	1106.158569	2875.431396	2183.862305	60.912243
756.966064	1103.706543	2878.184570	2196.552002	61.586868
757.282410	1105.599487	2877.625244	2208.209229	62.223122
757.598633	1105.233643	2882.271240	2222.920410	62.896069
757.914795	1104.825073	2896.337402	2242.320801	63.493603
758.230896	1104.545532	2901.757568	2259.075684	64.240067
758.546936	1102.308716	2909.822998	2279.529785	65.129280
758.862976	1102.523804	2918.791992	2299.962402	65.928513
759.178894	1103.018555	2928.728516	2317.577393	66.525291
759.494812	1103.083008	2934.729492	2342.075195	67.643631
759.810669	1102.996948	2944.429443	2361.991455	68.370384
760.126526	1102.760254	2954.323242	2382.252197	69.103348
760.442261	1103.642090	2959.721680	2397.264648	69.696503
760.757935	1104.222778	2963.442627	2416.600586	70.587555
761.073608	1105.212158	2963.077148	2431.978760	71.413513
761.389160	1106.223145	2959.635742	2444.152100	72.187325
761.704712	1106.115601	2961.743408	2459.853027	72.953072
762.020203	1108.029785	2966.690186	2478.952148	73.758629
762.335571	1110.051636	2980.756348	2501.922607	74.403564
762.650940	1108.459961	3021.342041	2548.767334	75.295151
762.966370	1108.481445	3090.081787	2616.281006	76.089996
763.281677	1108.094238	3187.427246	2708.937500	76.988304
763.596863	1107.104980	3289.590088	2807.939209	77.931084
763.911987	1108.330933	3376.978027	2894.810303	78.746468
764.227112	1108.201782	3447.481201	2961.420654	79.221786
764.542236	1109.513794	3499.917725	3015.513428	79.735466
764.857178	1108.760986	3536.459961	3060.228760	80.383430
765.172119	1111.234497	3560.376709	3093.393799	80.932800
765.487061	1110.954834	3571.862305	3112.105713	81.317596
765.801880	1108.223389	3565.560303	3118.042236	81.788490
766.116760	1108.180298	3531.813965	3096.598389	82.042847
766.431458	1104.653076	3459.460693	3048.119629	82.531860
766.746155	1105.319824	3352.996094	2973.701904	83.125053
767.060791	1105.513428	3239.605713	2888.680664	83.556236
767.375427	1105.835938	3135.850586	2812.047363	84.049217
767.689941	1104.610107	3043.925537	2750.534424	84.871407
768.004395	1102.889282	2969.206787	2701.173584	85.638390
768.318848	1101.878418	2905.542725	2657.211182	86.231834
768.633179	1098.845825	2852.310303	2617.528809	86.610420
768.947632	1098.200562	2804.261475	2585.331299	87.167503
769.261841	1100.179321	2762.600342	2558.725586	87.736275
769.576111	1100.372925	2719.992920	2538.163818	88.773346
769.890259	1103.534546	2686.526367	2513.967285	89.099182
770.204285	1104.588379	2656.543945	2490.394775	89.294205
770.518433	1104.502441	2624.927246	2469.467041	89.775215
770.832458	1105.921997	2599.913330	2454.368652	90.257996
771.146362	1105.857544	2576.641602	2440.797119	90.763802
771.460205	1106.008057	2551.283936	2424.235840	91.209419
771.774109	1107.771606	2528.399414	2413.223877	91.892632
772.087952	1109.083618	2510.547607	2405.222900	92.484665
772.401672	1109.320190	2493.814453	2394.210693	92.805763
772.715332	1108.008301	2477.532959	2384.661133	93.218681
773.028992	1108.180298	2460.993164	2375.068604	93.648453
773.342590	1107.922241	2446.754883	2368.465576	94.152420
773.656128	1105.685425	2431.699219	2365.067383	94.975029
773.969604	1105.986450	2420.729980	2356.937256	95.147896
774.283020	1102.889404	2403.114990	2350.699951	95.968773
774.596375	1101.061157	2390.769287	2342.311523	96.242737
774.909729	1102.437622	2380.531494	2337.493896	96.632675
775.223022	1101.577393	2369.756104	2329.256104	96.806442
775.536194	1099.319092	2355.560791	2322.782227	97.390747
775.849304	1097.318848	2342.247314	2320.782227	98.275795
776.162476	1096.286255	2329.364014	2312.071533	98.597618
776.475525	1096.436890	2321.836182	2306.522461	98.750305
776.788513	1094.909790	2311.791992	2302.113281	99.204628
777.101440	1097.103638	2304.285400	2297.940674	99.474419
777.414307	1097.727417	2294.628662	2298.822510	100.350395
777.727173	1098.222168	2295.811523	2295.058350	99.937111
778.039978	1097.963989	2290.090088	2292.391602	100.193062
778.352722	1097.856567	2282.777588	2287.874756	100.430168
778.665405	1099.254517	2278.863281	2287.638184	100.743881
778.977966	1103.104614	2273.507568	2287.165039	101.166901
779.290649	1106.502808	2272.689941	2284.713135	101.030983
779.603149	1107.771729	2269.915527	2288.562988	101.604576
779.915588	1108.890137	2269.463867	2288.046875	101.601189
780.227966	1110.159058	2265.011719	2286.111084	101.827019
780.540405	1110.825806	2259.763916	2285.680908	102.255737
780.852722	1110.847290	2255.225586	2280.798584	102.234665
781.164917	1111.836670	2247.590576	2275.808838	102.484543
781.477173	1112.890503	2240.987549	2272.776123	102.817894
781.789246	1112.740112	2233.330322	2271.012695	103.362724
782.101379	1111.449585	2226.791992	2267.399414	103.640800
782.413452	1109.148193	2217.801758	2259.935791	103.800468
782.725403	1107.341553	2204.552734	2254.924805	104.590919
783.037292	1105.857422	2196.981934	2244.988037	104.399689
783.349182	1104.115356	2183.259521	2236.427490	104.926865
783.661072	1104.480957	2174.269287	2229.416016	105.154922
783.972839	1104.739014	2166.483887	2217.694092	104.823212
784.284546	1105.534790	2158.654541	2214.102295	105.265099
784.596191	1104.007813	2148.072510	2209.607178	105.893761
784.907898	1105.319824	2140.910400	2201.283447	105.829819
785.219421	1105.599487	2138.888672	2194.551514	105.386955
785.530884	1103.685059	2133.296631	2184.270508	104.950790
785.842346	1101.899902	2129.511230	2179.667969	104.880905
786.153748	1103.706543	2128.285400	2171.989502	104.265564
786.465149	1105.749878	2125.016113	2170.441162	104.456642
786.776428	1106.760742	2123.596680	2168.613037	104.427101
787.087646	1105.018677	2123.596680	2169.516113	104.508194
787.398804	1102.738892	2128.242188	2178.979492	104.947548
787.709961	1101.233276	2137.082275	2190.722900	105.178421
788.021057	1103.405640	2154.181152	2206.854004	105.012756
788.332031	1104.179932	2168.505127	2227.523438	105.545135
788.643005	1104.007690	2180.033447	2244.105957	105.954552
788.953918	1105.663940	2188.249756	2260.452148	106.669441
789.264832	1107.147949	2198.917480	2274.604492	106.932510
789.575623	1107.298462	2206.423828	2283.809814	107.040688
789.886353	1106.739258	2209.219727	2288.390869	107.181183
790.197083	1106.352051	2213.435547	2292.735840	107.162994
790.507690	1106.115601	2211.392334	2291.875244	107.281700
790.818359	1107.900635	2200.466309	2281.422607	107.409744
791.128845	1108.137329	2187.346436	2264.344971	107.134720
791.439331	1105.126221	2166.375977	2243.030762	107.223068
791.749756	1104.782104	2145.491699	2219.758789	107.136200
792.060120	1103.964844	2123.144775	2199.498291	107.491661
792.370483	1104.846558	2106.927490	2179.345215	107.226730
792.680786	1103.147339	2090.302246	2161.386230	107.200897
792.990967	1100.781494	2074.170898	2145.663818	107.344742
793.301086	1100.502075	2062.943604	2133.296631	107.309853
793.611267	1101.426880	2046.511597	2122.047852	107.992538
793.921326	1102.824951	2038.596802	2112.261719	107.872101
794.231323	1101.276245	2035.133911	2106.992188	107.694778
794.541260	1101.297729	2027.778198	2104.712646	108.303947
794.851074	1102.265625	2027.907104	2103.185303	108.132545
795.161011	1098.265137	2031.240967	2106.454834	108.061714
795.470764	1098.071533	2039.284790	2109.938721	107.506683
795.780518	1096.953125	2045.221436	2117.337646	107.605042
796.090149	1099.405151	2051.867432	2126.069824	107.790588
796.399780	1099.405029	2061.093994	2136.071045	107.796394
796.709412	1100.007324	2064.169922	2142.050537	108.077538
797.018860	1099.232910	2071.396729	2146.825195	107.758820
797.328308	1099.964233	2072.385986	2153.299072	108.320778
797.637756	1097.985474	2073.375244	2156.094971	108.480682
797.947205	1097.619751	2074.558350	2155.428467	108.277908
798.256470	1099.211426	2069.503662	2158.718994	109.194687
798.565674	1103.018433	2063.288086	2154.632568	109.512375
798.874817	1103.921753	2053.007324	2146.308838	109.830673
799.183960	1105.319824	2041.629395	2137.103271	110.196831
799.493103	1104.717529	2030.810669	2124.951416	110.165367
799.802124	1106.524170	2017.411255	2114.197510	110.625496
800.111084	1105.900391	2009.431763	2104.411377	110.512047
800.419983	1106.610229	2000.828491	2095.507080	110.587860
800.728821	1106.158569	1994.246948	2086.645752	110.404236
801.037659	1110.847290	1983.901611	2078.816895	110.871635
801.346436	1113.041016	1975.319946	2070.880371	111.082314
801.655151	1112.395874	1968.351563	2060.620850	110.779678
801.963745	1112.137817	1960.952759	2051.866943	110.710716
802.272400	1111.686035	1954.586304	2044.876831	110.711891
802.580933	1108.782471	1948.757446	2035.026123	110.270386
802.889404	1110.395630	1939.681152	2026.853149	110.511696
803.197815	1108.244751	1933.056763	2019.218018	110.446167
803.506226	1107.879272	1927.916138	2011.346069	110.173927
803.814575	1107.664185	1922.775879	2004.958130	110.082329
804.122864	1106.008057	1917.463379	1996.914063	109.791138
804.431030	1104.459351	1914.172729	1993.838379	109.838745
804.739197	1103.620605	1916.108521	1993.279297	109.498085
805.047241	1103.943237	1915.699707	1993.601929	109.596748
805.355408	1103.147461	1918.151611	1994.483643	109.365845
805.663391	1104.760498	1919.184082	1998.312134	109.715836
805.971313	1105.427368	1921.098389	2002.420288	109.969940
806.279175	1104.330444	1924.969604	2004.764771	109.723541
806.587036	1105.341309	1926.711792	2005.732544	109.620598
806.894836	1105.018677	1926.840698	2006.786377	109.727859
807.202576	1103.168945	1925.292236	2006.183960	109.839363
807.510193	1104.093750	1923.464111	2007.495972	110.255661
807.817810	1101.211670	1923.743774	2005.624878	109.954758
808.125427	1099.684570	1918.001099	2000.957520	110.137451
808.432922	1096.436890	1911.183105	1990.870361	109.780624
808.740295	1096.630371	1904.515625	1984.073853	109.847717
809.047729	1096.910034	1897.159790	1974.352051	109.646019
809.355103	1098.867310	1889.890137	1965.942261	109.614403
809.662415	1097.748901	1881.760132	1956.005737	109.469971
809.969604	1097.318848	1873.199951	1948.026245	109.644043
810.276794	1097.146729	1862.832886	1941.681274	110.297745
810.583923	1097.662964	1855.520264	1934.368652	110.404121
810.890991	1097.576904	1849.755981	1928.432373	110.459793
811.197998	1100.265381	1838.636597	1917.656738	110.701950
811.505005	1100.545044	1829.732056	1909.268677	110.907578
811.811829	1102.781860	1824.849731	1905.870605	111.220673
812.118713	1103.427002	1818.332520	1897.353516	111.053345
812.425537	1100.007324	1810.654419	1891.911987	111.434303
812.732300	1098.286621	1803.857910	1886.276855	111.681168
813.038940	1097.555298	1795.985962	1881.244019	112.207092
813.345581	1098.673706	1790.673462	1874.339722	112.090508
813.652100	1100.028809	1789.146362	1867.585938	111.382614
813.958740	1101.491333	1781.769165	1863.757813	112.052231
814.265137	1101.383789	1776.757690	1857.434326	111.945480
814.571533	1101.469849	1774.047729	1855.907471	112.171043
814.877930	1102.523682	1773.122925	1851.412231	111.674530
815.184265	1103.964722	1768.821411	1849.583984	112.147369
815.490540	1104.093872	1763.143066	1847.906250	112.861435
815.796692	1106.631836	1762.971069	1847.820313	112.927650
816.102844	1107.771851	1762.368774	1845.841675	112.751801
816.408936	1108.976196	1766.799683	1847.583862	112.280525
816.714966	1108.438477	1770.885986	1850.896118	112.077957
817.020935	1109.556763	1771.810669	1856.617188	112.805740
817.326843	1107.513550	1777.725708	1860.187378	112.303818
817.632690	1106.459595	1779.919434	1863.865234	112.464859
817.938477	1104.911011	1788.436646	1870.210205	111.963493
818.244263	1103.018433	1796.803223	1879.157715	111.870323
818.549988	1102.459106	1803.621216	1887.416870	111.950966
818.855652	1100.889038	1818.934814	1902.085205	111.580093
819.161194	1098.738281	1837.646851	1918.302246	110.915474
819.466797	1097.254150	1861.133667	1947.251953	111.273804
819.772278	1095.339966	1890.406250	1978.761353	111.112923
820.077698	1095.038818	1919.743042	2015.884277	111.657661
820.383057	1092.285889	1959.597534	2057.179688	111.251106
820.688354	1094.092529	2009.173706	2111.250977	111.154999
820.993652	1094.329102	2079.547852	2191.260742	111.338890
821.298828	1096.415527	2214.726074	2340.225342	111.222221
821.604004	1097.899536	2465.746338	2628.540771	111.901512
821.909058	1096.824097	2844.459961	3047.925781	111.642349
822.214111	1099.060913	3285.396240	3548.934326	112.053871
822.519165	1100.630981	3705.297852	4028.499268	112.408539
822.824036	1102.007446	4058.803955	4429.065430	112.522392
823.128906	1105.749878	4342.279785	4749.147949	112.571121
823.433716	1106.007935	4574.932129	5009.502441	112.527527
823.738525	1109.234253	4759.578613	5218.732422	112.578369
824.043213	1106.954346	4896.929199	5376.666016	112.658051
824.347900	1105.685425	4988.102051	5479.431641	112.655251
824.652466	1104.437988	4985.327637	5484.657715	112.866379
824.957031	1104.308838	4849.633301	5326.853516	112.741768
825.261536	1103.599121	4573.706543	5022.988281	112.947197
825.565979	1103.706787	4218.823730	4617.109863	112.785591
825.870300	1101.448364	3871.468750	4219.296875	112.556877
826.174622	1104.050781	3593.305420	3902.763184	112.431747
826.478821	1102.093628	3401.754883	3689.747070	112.523247
826.783142	1102.007690	3285.482178	3558.956787	112.524742
827.087280	1101.018188	3221.195068	3487.034180	112.538544
827.391357	1103.018433	3180.673584	3444.448486	112.695801
827.695435	1106.373657	3141.894775	3399.475098	112.654274
827.999451	1107.771606	3105.331055	3353.555420	112.426376
828.303406	1106.954468	3065.025146	3314.152588	112.723114
828.607239	1106.309082	3027.084961	3267.609375	112.522255
828.911011	1104.373535	2986.262451	3221.753906	112.513565
829.214844	1106.481323	2942.364502	3173.468506	112.588173
829.518616	1101.770996	2881.453613	3101.567139	112.368134
829.822205	1099.168457	2785.355713	2991.747070	112.240120
830.125793	1098.802856	2655.705322	2846.976563	112.285370
830.429382	1097.684448	2507.988037	2679.515137	112.162422
830.732849	1098.179077	2366.185791	2517.021484	111.895500
831.036316	1097.125122	2247.095703	2384.015869	111.906403
831.339661	1096.996094	2152.202148	2275.679932	111.701767
831.642944	1097.963989	2073.009521	2182.679199	111.247650
831.946228	1098.888794	2006.377441	2109.014160	111.309975
832.249512	1099.082520	1956.866089	2054.319092	111.361023
832.552673	1098.802856	1924.474976	2018.659058	111.406960
832.855774	1102.373169	1913.957520	2011.432129	112.010406
833.158813	1104.244263	1932.303955	2038.317261	112.802620
833.461731	1105.384277	1976.287842	2088.000732	112.827240
833.764771	1105.341309	2036.574707	2154.051758	112.615211
834.067627	1103.792603	2098.690186	2219.780273	112.171112
834.370422	1103.233398	2151.191162	2278.906006	112.187019
834.673157	1101.792358	2194.078369	2327.019531	112.170914
834.975891	1100.846069	2228.921143	2367.734131	112.305298
835.278564	1101.749390	2257.096680	2398.877930	112.271744
835.581177	1102.394653	2272.690186	2417.611572	112.383316
835.883728	1103.556030	2277.465088	2422.902100	112.389122
836.186218	1104.308838	2261.549316	2403.179443	112.238609
836.488647	1105.448730	2222.920654	2352.915283	111.632919
836.791077	1104.739014	2158.977295	2283.680664	111.828766
837.093384	1104.760498	2080.171631	2200.616455	112.348106
837.395630	1105.513306	2004.011719	2116.778320	112.550560
837.697815	1106.782349	1935.186035	2039.714844	112.618103
838.000061	1108.653564	1870.919922	1969.706543	112.959595
838.302124	1111.621582	1817.149902	1907.139404	112.754913
838.604126	1109.685913	1769.058105	1850.982056	112.424538
838.906128	1108.309448	1729.268066	1804.352661	112.091721
839.208069	1105.255127	1694.123779	1769.660034	112.827354
839.510010	1102.824829	1674.121460	1746.990601	112.755043
839.811829	1102.114990	1658.850708	1736.279663	113.907669
840.113586	1101.577271	1653.064941	1729.009888	113.770927
840.415222	1103.168945	1650.699219	1725.654663	113.689735
840.716919	1103.104492	1648.032349	1721.353027	113.455116
841.018555	1104.072388	1644.848877	1720.320679	113.956192
841.320068	1100.286865	1644.203613	1720.686401	114.061485
841.621521	1096.651978	1642.418457	1719.073120	114.045326
841.922974	1099.620117	1639.471924	1718.019409	114.549820
842.224365	1100.738525	1635.191772	1715.933105	115.107277
842.525635	1102.158081	1626.932861	1704.017456	114.689079
842.826965	1100.738525	1612.565308	1686.316406	114.409386
843.128174	1102.029053	1592.476929	1658.807739	113.524536
843.429260	1101.684814	1573.872314	1630.782715	112.052498
843.730408	1100.308228	1551.912842	1603.703979	111.468246
844.031433	1099.146851	1530.770386	1582.066895	111.884552
844.332397	1097.856323	1515.349121	1560.859863	110.900963
844.633362	1099.491089	1498.572754	1542.040527	110.891953
844.934204	1100.846191	1484.571045	1525.522339	110.672043
845.235046	1100.007324	1472.634155	1510.401978	110.135559
845.535828	1101.534424	1456.997925	1494.851685	110.649124
845.836487	1100.781738	1448.093506	1482.527588	109.914459
846.137146	1101.878540	1434.887451	1472.311401	111.238121
846.437744	1102.545288	1427.854370	1463.665161	111.008232
846.738281	1103.448486	1417.229248	1455.449097	112.180428
847.038757	1104.287476	1411.551147	1448.093506	111.892838
847.339172	1104.911011	1405.765503	1440.866699	111.667168
847.639526	1103.900269	1403.034058	1433.984131	110.346565
847.939819	1105.147583	1398.732422	1428.843750	110.256432
848.240112	1106.825317	1394.538452	1423.230225	109.972351
848.540283	1107.449097	1390.408936	1417.896118	109.714165
848.840393	1105.964966	1389.118408	1414.519409	108.970757
849.140564	1107.104858	1386.429932	1410.970581	108.785698
849.440552	1108.567505	1385.118042	1405.442871	107.349411
849.740540	1108.847168	1380.644409	1401.657471	107.731155
850.040405	1109.126709	1377.203003	1399.184082	108.199562
850.340210	1108.675049	1371.869019	1397.054688	109.569244
850.640137	1110.180542	1369.847168	1394.903931	109.649590
850.939819	1109.148193	1366.083130	1392.710083	110.363304
851.239502	1110.524658	1361.717163	1387.203979	110.146332
851.539185	1110.589111	1355.802368	1383.354126	111.235832
851.838745	1108.545898	1352.404175	1383.332642	112.682968
852.138245	1106.653198	1350.984619	1380.235474	111.971794
852.437744	1104.911133	1346.446411	1379.912842	113.855713
852.737122	1104.308838	1346.683105	1378.708496	113.213196
853.036499	1104.739014	1346.855103	1378.687012	113.147377
853.335815	1103.340942	1345.758179	1375.159668	112.128464
853.635010	1104.050781	1346.833618	1373.610962	111.029343
853.934204	1105.341309	1349.285522	1372.793701	109.636703
854.233276	1108.373901	1348.855347	1369.890137	108.746948
854.532410	1106.868408	1351.758911	1370.191162	107.526733
854.831482	1106.007935	1352.726807	1370.320190	107.130943
855.130371	1106.438232	1350.726563	1366.879028	106.612053
855.429260	1108.804077	1347.113159	1365.416504	107.680504
855.728088	1109.987061	1345.478516	1361.394531	106.758636
856.026855	1109.750488	1342.940552	1359.028564	106.899101
856.325623	1108.911621	1341.822144	1357.006836	106.519539
856.624329	1107.986816	1339.972534	1357.329590	107.481949
856.922913	1105.771362	1337.692505	1355.479736	107.669518
857.221436	1104.846558	1332.939331	1353.522583	109.024071
857.519958	1102.781738	1328.917480	1356.146484	112.041000
857.818420	1102.695801	1325.519165	1354.318237	112.924622
858.116821	1101.534302	1325.088989	1351.350464	111.747223
858.415161	1101.512817	1325.454590	1349.500732	110.737679
858.713379	1099.964355	1326.809692	1349.393066	109.955406
859.011658	1100.867676	1329.863770	1350.963135	109.213852
859.309814	1100.372925	1327.605347	1350.748047	110.184593
859.607910	1098.630737	1325.519043	1351.586792	111.489243
859.905945	1100.050293	1325.669678	1350.618896	111.058098
860.203979	1099.727661	1323.475830	1350.253296	111.967682
860.501953	1099.663086	1320.206543	1348.726196	112.931534
860.799744	1100.243774	1315.582397	1342.962036	112.714691
861.097656	1099.792114	1315.152222	1342.639526	112.763412
861.395325	1100.007324	1313.990723	1342.338379	113.247597
861.693115	1100.673950	1311.753906	1342.854614	114.734085
861.990784	1100.716919	1310.872192	1342.295410	114.952385
862.288330	1102.158081	1306.484497	1340.036987	116.421021
862.585815	1101.641846	1306.484497	1338.811035	115.781158
862.883301	1100.932129	1305.710205	1336.488159	115.029907
863.180786	1100.738403	1303.537964	1331.885498	113.978104
863.478149	1103.319458	1304.204590	1330.487427	113.083519
863.775452	1102.910767	1307.086792	1329.777710	111.113411
864.072693	1102.007446	1309.968750	1331.412231	110.311287
864.369873	1102.373169	1307.624390	1330.616577	111.201973
864.667114	1102.717285	1306.183350	1330.143433	111.775963
864.964111	1102.652832	1306.613525	1330.487427	111.705147
865.261169	1104.717529	1305.387573	1330.767090	112.647385
865.558105	1102.502197	1304.613281	1328.917358	112.025108
865.855042	1104.158325	1302.849609	1327.777466	112.546021
866.151917	1105.620972	1301.666626	1326.228882	112.528847
866.448730	1106.502686	1304.183105	1329.412109	112.762520
866.745422	1103.878662	1302.806519	1328.680908	113.006920
867.042114	1103.556152	1302.612915	1329.734863	113.625237
867.338806	1105.921875	1302.225952	1327.046143	112.643745
867.635376	1105.792847	1304.484253	1325.927856	110.792419
867.931824	1104.803467	1303.236694	1326.056763	111.500122
868.228271	1103.749634	1302.591553	1325.174927	111.357452
868.524658	1103.276489	1302.871094	1322.744629	109.956947
868.821045	1103.470093	1305.753174	1321.583130	107.825645
869.117310	1102.717285	1305.710205	1320.916382	107.490990
869.413574	1101.598877	1306.613403	1319.195801	106.137321
869.709717	1100.286987	1303.150635	1318.055908	107.347435
870.005859	1101.448364	1302.161255	1318.313965	108.047668
870.301880	1102.437622	1300.483765	1319.367676	109.535110
870.597900	1100.157715	1299.903076	1320.292603	110.207756
870.893860	1099.835083	1299.902954	1318.442871	109.266815
871.189636	1098.630737	1300.612793	1317.905151	108.561333
871.485535	1100.093262	1300.333130	1316.421143	108.034370
871.781311	1099.899780	1299.107178	1315.539307	108.248756
872.077026	1102.158081	1295.536987	1318.077271	111.656021
872.372681	1102.029053	1295.429443	1320.013062	112.711258
872.668274	1102.459106	1296.719849	1322.292847	113.164261
872.963806	1104.072144	1297.881348	1321.368042	112.118462
873.259338	1103.642090	1300.010498	1321.325073	110.854378
873.554688	1102.157959	1300.956909	1318.421387	108.784996
873.850098	1103.964722	1300.634277	1317.754639	108.705139
874.145447	1102.459106	1298.978149	1320.443115	110.922585
874.440674	1106.760742	1298.849121	1321.303589	111.689651
874.735840	1108.373901	1299.386841	1322.335938	112.014420
875.031006	1107.234009	1300.182617	1324.250122	112.473534
875.326050	1104.179810	1300.182617	1322.809082	111.543953
875.621094	1104.610107	1300.849365	1324.422241	112.012314
875.916077	1104.588501	1299.300903	1322.357544	111.841385
876.210999	1103.900391	1300.075073	1323.884644	112.136925
876.505798	1103.964722	1299.924561	1324.486816	112.534332
876.800598	1104.007935	1300.118042	1324.486816	112.426071
877.095337	1105.534912	1298.741577	1324.142700	113.147125
877.390015	1109.858032	1298.311401	1322.637085	112.908066
877.684692	1107.126465	1299.558838	1320.013184	110.629372
877.979187	1104.588501	1300.139526	1321.669189	111.009743
878.273804	1103.964722	1299.687988	1321.497192	111.142876
878.568237	1105.255127	1304.548706	1324.873901	110.198624
878.862610	1105.298096	1310.226807	1326.895630	108.133965
879.156921	1105.040161	1314.958618	1331.519775	107.889328
879.451172	1106.115479	1317.819214	1338.316406	109.682014
879.745422	1104.825073	1324.336060	1347.177612	110.405655
880.039612	1105.642456	1335.434326	1363.523804	112.223877
880.333679	1104.050781	1354.748535	1384.773682	111.976631
880.627686	1102.265747	1386.946167	1420.003906	111.612228
880.921692	1103.620728	1434.801514	1477.817505	112.988670
881.215698	1104.502441	1511.972290	1565.118652	113.043015
881.509460	1103.276489	1622.695801	1685.112061	112.016548
881.803345	1101.942993	1750.367554	1830.398804	112.342415
882.097046	1100.437500	1884.534668	1980.137573	112.192734
882.390808	1101.577393	2013.023804	2126.198730	112.417068
882.684448	1101.878540	2128.027100	2253.354492	112.213379
882.978027	1102.158081	2228.620361	2365.906006	112.187325
883.271545	1099.813599	2315.383789	2460.326172	111.923820
883.565002	1098.716675	2382.854492	2536.658447	111.977219
883.858398	1097.512329	2424.558350	2586.514160	112.204231
884.151733	1096.393921	2439.592285	2602.473145	112.126343
884.445068	1096.286377	2415.374512	2574.448242	112.059372
884.738281	1098.308105	2349.688965	2503.514648	112.292473
885.031433	1098.587769	2249.848633	2391.220947	112.279778
885.324585	1100.501953	2134.995850	2268.388428	112.894478
885.617676	1099.276001	2024.035645	2143.017822	112.866280
885.910645	1097.533813	1920.603394	2026.616699	112.880234
886.203552	1098.329590	1828.484741	1919.355957	112.445465
886.496521	1100.243896	1741.032837	1820.849121	112.455940
886.789368	1099.405029	1665.152466	1733.397705	112.062843
887.082153	1100.329956	1598.241089	1656.527832	111.706253
887.374817	1098.974976	1540.234009	1591.788696	111.683540
887.667480	1096.372314	1489.281372	1536.147339	111.927940
887.960083	1097.727417	1447.986084	1490.356689	112.096947
888.252625	1098.867310	1418.218872	1457.729004	112.371986
888.545166	1097.555420	1393.807251	1428.413452	111.681343
888.837524	1100.630981	1371.288330	1405.335449	112.579414
889.129883	1100.738525	1354.920776	1387.978516	113.005524
889.422241	1101.383667	1337.477661	1371.826050	114.548607
889.714478	1109.599854	1316.141602	1363.695801	123.024010
890.006714	1098.716797	1306.441406	1337.434570	114.920311
890.298767	1126.870850	1291.299683	1322.766113	119.136810
890.590881	1096.350830	1287.750977	1323.712524	118.788673
890.882935	1098.953369	1280.416748	1312.356201	117.601044
>>>>>End Processed Spectral Data<<<<<
