Jaz Data File
++++++++++++++++++++++++++++++++++++
Date: Thu Dec 19 19:56:33 2019
User: jaz
Dark Spectrum Present: Yes
Reference Spectrum Present: Yes
Processed Spectrum Present: Yes
Spectrometers: JAZA2928
Integration Time (usec): 32200 (JAZA2928)
Spectra Averaged: 10 (JAZA2928)
Boxcar Smoothing: 5 (JAZA2928)
Correct for Electrical Dark: No (JAZA2928)
Strobe/Lamp Enabled: Yes (JAZA2928)
Correct for Detector Non-linearity: No (JAZA2928)
Correct for Stray Light: No (JAZA2928)
Number of Pixels in Processed Spectrum: 2048
>>>>>Begin Processed Spectral Data<<<<<
W	D	R	S	P
190.104553	0.000000	0.000000	0.000000	0.000000
190.488098	0.000000	0.000000	0.000000	0.000000
190.871613	1222.216064	1221.506226	1227.184326	-699.914001
191.255096	1238.540649	1233.335571	1220.086670	354.537994
191.638535	0.000000	0.000000	0.000000	0.000000
192.021942	1036.773560	1030.450195	1026.191650	167.346191
192.405334	1155.648560	1147.669067	1142.077026	170.080154
192.788696	1274.652466	1262.909058	1260.027100	124.541069
193.172012	1281.298462	1269.963745	1265.877197	136.053375
193.555313	1285.621704	1275.921387	1272.480225	135.474731
193.938568	1287.686401	1279.212036	1271.706055	188.572784
194.321793	1290.460938	1281.040405	1276.222778	151.139648
194.704987	1289.019897	1284.245117	1276.803467	255.853256
195.088150	1289.234985	1288.267090	1278.352051	1124.391479
195.471298	1289.493042	1288.654419	1278.954224	1256.681274
195.854401	1289.772705	1286.008911	1279.341309	277.151093
196.237457	1290.568481	1284.460205	1279.599487	179.575928
196.620499	1288.439331	1282.847168	1279.147827	166.152237
197.003494	1284.438721	1283.922485	1275.878540	1658.193481
197.386475	1282.524536	1283.363403	1273.727783	-1048.646729
197.769424	1281.212402	1279.771484	1272.050171	635.860718
198.152344	1276.953857	1280.287720	1274.630981	-69.675224
198.535217	1276.007568	1284.933472	1273.319214	-30.118570
198.918076	1276.867920	1284.051636	1276.416260	-6.287278
199.300903	1277.900269	1285.406616	1274.437378	-46.132832
199.683670	1277.362671	1288.159668	1277.018433	-3.188278
200.066422	1276.029175	1290.396362	1277.233521	8.382613
200.449142	1272.996338	1293.257080	1275.233276	11.040752
200.831848	1272.308105	1295.923950	1275.512817	13.570177
201.214508	1273.082520	1297.494019	1277.556152	18.325924
201.597137	1270.372437	1297.322144	1278.717651	30.965883
201.979736	1270.437012	1300.462280	1277.599243	23.854013
202.362274	1269.383057	1301.989380	1276.803467	22.757580
202.744827	1266.500977	1300.075073	1274.416016	23.574839
203.127319	1266.672974	1301.387085	1270.523071	11.090872
203.509796	1265.511597	1299.752441	1270.415527	14.321874
203.892227	1264.479126	1296.504761	1267.382935	9.067139
204.274643	1262.263794	1295.128174	1267.662354	16.426781
204.657013	1263.597534	1293.515137	1267.554932	13.227655
205.039352	1263.640503	1292.095581	1267.296753	12.849200
205.421661	1264.092163	1289.751221	1265.382690	5.029520
205.803940	1264.909424	1291.364380	1261.640259	-12.357477
206.186188	1265.898804	1292.547241	1260.371216	-20.742634
206.568405	1264.973755	1292.353638	1258.285034	-24.429325
206.950592	1264.758911	1290.504028	1259.209839	-21.553883
207.332748	1262.328491	1288.654297	1257.940918	-16.666435
207.714859	1261.661621	1287.793945	1255.746948	-22.633551
208.096939	1260.478760	1288.116577	1254.650146	-21.089268
208.478989	1260.220581	1289.772583	1253.381104	-23.143871
208.861008	1258.392456	1290.697388	1252.972534	-16.777382
209.243011	1256.542847	1291.041504	1253.875854	-7.730713
209.624969	1254.563965	1292.740723	1252.800415	-4.619433
210.006897	1256.112671	1290.503906	1253.617676	-7.254741
210.388794	1252.155273	1290.288940	1254.542603	6.260424
210.770645	1254.585693	1292.611816	1256.693481	5.543000
211.152481	1253.273560	1292.353638	1257.295776	10.292244
211.534286	1252.133789	1291.041626	1259.898071	19.955574
211.916061	1251.208862	1291.536255	1260.199219	22.293423
212.297791	1251.488403	1293.773193	1261.081177	22.686110
212.679489	1250.240967	1292.418213	1261.016602	25.548454
213.061157	1249.832275	1292.224731	1261.833862	28.310667
213.442795	1248.907471	1290.891113	1258.543091	22.950891
213.824402	1249.208618	1290.891113	1259.166870	23.890730
214.205963	1249.251587	1292.998901	1259.295898	22.959835
214.587524	1250.778687	1292.697754	1258.865723	19.292023
214.969025	1250.004395	1290.955688	1259.769043	23.844542
215.350510	1251.638916	1293.730347	1259.381836	18.395477
215.731949	1254.628540	1297.343628	1260.070068	12.739124
216.113358	1253.961792	1301.021484	1261.037964	15.036588
216.494736	1254.542603	1302.505493	1263.317749	18.295700
216.876083	1258.156006	1306.893066	1265.533081	15.136479
217.257401	1258.543091	1309.237427	1265.361206	13.449462
217.638702	1260.457275	1314.420898	1266.522583	11.239623
218.019943	1260.607910	1316.421265	1265.834229	9.363921
218.401169	1260.048706	1319.152710	1265.447144	9.133793
218.782349	1262.521973	1321.927246	1267.425903	8.255043
219.163498	1263.059692	1323.755371	1265.640747	4.252452
219.544632	1262.479004	1325.282593	1266.931274	7.089198
219.925705	1262.070313	1328.229248	1268.995972	10.468214
220.306778	1261.704712	1329.971313	1269.813354	11.877906
220.687805	1260.328247	1330.100464	1268.759277	12.083650
221.068802	1259.102417	1331.304810	1267.812988	12.064103
221.449738	1259.575439	1335.176270	1271.039185	15.163518
221.830673	1260.844482	1340.144653	1273.061035	15.405456
222.211563	1260.564819	1345.908691	1276.416382	18.573755
222.592438	1260.005615	1350.704956	1280.696411	22.812510
222.973267	1257.661133	1356.189453	1280.674927	23.357542
223.354065	1257.489136	1360.684570	1283.040894	24.760551
223.734848	1257.983765	1367.545776	1282.266602	22.163555
224.115555	1257.058838	1371.632324	1284.460327	23.916082
224.496262	1259.274292	1378.923584	1286.525146	22.775608
224.876923	1259.166748	1387.118164	1290.417969	24.424286
225.257568	1258.413940	1396.839844	1293.213989	25.139839
225.638168	1257.467651	1405.399902	1294.633545	25.123590
226.018723	1255.510376	1415.358154	1298.419067	26.843472
226.399277	1256.671875	1429.618042	1304.140137	27.446842
226.779785	1256.284668	1448.308594	1309.086914	27.497744
227.160263	1256.564331	1469.364868	1317.668701	28.714388
227.540695	1255.811523	1498.056519	1328.508667	30.009760
227.921112	1255.682495	1535.050659	1342.445801	31.056976
228.301483	1256.327637	1587.142944	1357.157349	30.479155
228.681824	1255.940552	1654.613770	1381.289307	31.441479
229.062134	1257.187988	1742.345215	1408.690674	31.227543
229.442413	1256.822388	1835.195313	1437.747925	31.281813
229.822647	1256.736450	1917.162231	1465.988037	31.684345
230.202881	1256.370850	1976.868774	1486.313232	31.914371
230.583054	1255.919067	2022.057129	1497.712524	31.560038
230.963196	1257.231079	2059.610352	1509.090210	31.389038
231.343292	1256.671875	2089.786133	1519.328125	31.527039
231.723404	1257.381592	2115.445068	1525.049194	31.194382
232.103439	1258.865601	2118.628174	1525.952393	31.065180
232.483459	1259.683105	2104.992188	1519.693726	30.759237
232.863434	1258.586060	2070.450195	1504.078857	30.238163
233.243393	1258.285034	2015.389771	1485.022705	29.947992
233.623306	1259.682983	1957.339478	1466.912964	29.703728
234.003174	1262.436035	1916.216064	1452.201538	29.025894
234.383041	1264.672852	1894.191772	1443.168091	28.354229
234.762848	1262.823120	1883.179688	1440.286011	28.606594
235.142639	1262.758667	1874.318359	1438.328979	28.708614
235.522385	1263.877075	1869.134888	1434.091797	28.122681
235.902115	1263.984619	1861.284424	1433.683105	28.410940
236.281799	1261.790894	1867.285156	1434.199219	28.473982
236.661438	1260.521851	1877.587524	1436.952271	28.591839
237.041077	1259.962646	1886.642456	1442.608887	29.145065
237.420654	1258.521606	1899.052368	1445.340332	29.166239
237.800217	1259.618530	1908.171875	1447.813843	29.017708
238.179733	1258.392456	1913.032715	1447.878418	28.945051
238.559219	1255.639526	1920.151855	1450.244263	29.285347
238.938690	1257.015991	1925.270630	1452.093872	29.192148
239.318100	1257.059082	1934.110840	1453.707031	29.044744
239.697510	1257.037476	1949.876099	1458.869019	29.131104
240.076859	1259.962524	1975.535156	1466.999023	28.932981
240.456177	1263.360840	2010.206177	1476.505493	28.539330
240.835464	1266.350464	2052.361816	1486.657349	28.028461
241.214722	1268.243286	2118.499023	1503.756226	27.699070
241.593948	1271.835083	2203.584961	1529.609009	27.665571
241.973129	1272.007080	2313.103760	1559.397583	27.604593
242.352295	1273.104004	2449.937988	1595.810669	27.421597
242.731415	1274.028809	2594.773438	1633.170044	27.192329
243.110519	1276.136597	2738.920410	1669.432739	26.886826
243.489578	1279.879028	2854.095703	1701.479736	26.781618
243.868607	1280.524292	2936.471680	1722.815552	26.709257
244.247604	1278.610107	2992.048340	1735.139526	26.644054
244.626541	1278.545654	3030.138916	1744.323730	26.591681
245.005493	1277.706665	3060.357910	1754.260254	26.732857
245.384369	1278.093872	3082.252930	1759.981567	26.709824
245.763229	1277.039917	3105.395264	1765.358643	26.708086
246.142059	1276.695801	3143.271240	1776.069580	26.753475
246.520859	1278.373413	3211.688232	1795.190308	26.732164
246.899612	1283.535278	3337.144531	1828.334106	26.528845
247.278336	1285.127075	3500.261475	1874.404297	26.602325
247.657043	1286.783081	3670.949219	1921.635986	26.627882
248.035690	1292.074097	3825.097412	1963.899536	26.522669
248.414322	1294.633545	3956.468994	1998.097168	26.427765
248.792908	1296.332642	4057.556885	2030.058105	26.572470
249.171478	1296.440308	4134.491211	2050.447510	26.567783
249.550003	1297.472656	4170.065430	2059.653076	26.532839
249.928482	1299.150269	4163.354980	2056.276367	26.434078
250.306961	1300.655762	4105.949707	2036.940674	26.246265
250.685364	1299.193237	3984.687500	2004.312866	26.256607
251.063782	1295.364746	3801.374268	1956.479004	26.381155
251.442123	1292.891357	3596.402344	1899.203125	26.321201
251.820450	1288.761841	3427.220215	1851.412109	26.311022
252.198761	1285.148438	3321.271729	1823.171997	26.423918
252.576996	1283.771973	3252.962402	1806.374268	26.538942
252.955246	1284.266724	3202.784180	1788.587402	26.287001
253.333420	1282.395508	3155.960938	1775.983521	26.344851
253.711578	1282.094360	3120.386719	1765.767090	26.310980
254.089706	1281.234009	3094.641602	1759.207031	26.357727
254.467804	1278.696167	3074.488281	1756.239014	26.592323
254.845871	1278.954224	3059.067383	1752.001953	26.574026
255.223877	1279.362915	3035.322754	1744.216064	26.472881
255.601898	1279.986572	3003.275635	1736.580811	26.495510
255.979828	1278.072266	2957.786133	1723.310181	26.506771
256.357727	1275.921509	2903.155518	1704.727295	26.351820
256.735657	1277.986328	2861.386719	1689.349243	25.979715
257.113525	1275.469849	2853.579346	1685.198120	25.963234
257.491333	1275.814087	2883.432617	1692.532471	25.921473
257.869110	1277.921875	2942.601318	1707.071777	25.779732
258.246887	1279.448975	3030.805664	1730.494019	25.754036
258.624573	1278.932617	3157.036133	1762.089111	25.725765
259.002289	1279.792969	3341.295898	1808.374634	25.640596
259.379944	1281.255493	3600.080322	1875.393677	25.622385
259.757538	1282.567505	3934.035400	1959.016846	25.512260
260.135162	1288.331665	4299.199219	2051.931641	25.361460
260.512665	1292.977417	4625.433105	2139.512451	25.402740
260.890228	1291.622437	4865.914551	2204.058105	25.527731
261.267700	1292.805298	5017.804199	2244.751221	25.555601
261.645142	1295.235718	5103.686035	2265.721680	25.482437
262.022552	1294.805542	5155.219238	2275.894775	25.414097
262.399994	1293.084839	5181.330078	2279.443604	25.367710
262.777313	1296.268066	5170.166992	2275.120850	25.267897
263.154602	1296.010010	5093.103516	2254.666748	25.247120
263.531921	1295.536865	4939.601074	2213.414063	25.188282
263.909149	1293.988281	4691.892578	2149.535156	25.178663
264.286377	1290.611450	4405.685547	2074.106445	25.151728
264.663574	1287.385254	4147.826172	2006.076660	25.125196
265.040710	1289.364136	3970.470947	1957.231934	24.910151
265.417816	1288.245605	3871.103271	1931.981323	24.923391
265.794891	1288.611206	3844.691650	1921.894165	24.775547
266.171936	1288.976929	3865.167236	1928.367920	24.819244
266.548950	1289.170532	3915.560791	1940.111328	24.784618
266.925934	1287.621948	3973.847412	1951.596558	24.717752
267.302887	1286.912231	4037.941162	1962.780884	24.567850
267.679810	1286.202515	4101.884766	1974.975830	24.462042
268.056671	1288.869385	4178.711426	1991.386597	24.309883
268.433502	1289.901733	4260.613770	2009.539185	24.224411
268.810333	1290.138184	4344.064453	2025.025269	24.063681
269.187073	1288.159546	4420.568848	2041.586426	24.052633
269.563843	1291.127808	4495.244629	2057.760498	23.926491
269.940521	1290.525513	4550.649414	2070.299561	23.918539
270.317200	1290.826538	4602.333496	2078.515625	23.786425
270.693848	1291.837402	4668.664063	2092.388428	23.707199
271.070435	1295.063599	4802.809570	2120.628418	23.535479
271.447021	1298.569458	4975.347168	2165.795166	23.586569
271.823547	1300.892456	5153.003418	2210.811523	23.621311
272.200043	1301.236450	5297.623535	2248.687256	23.707684
272.576538	1301.731201	5417.380371	2279.809326	23.764854
272.952972	1303.602417	5524.404297	2305.618896	23.739956
273.329346	1305.452026	5626.266602	2328.955322	23.687740
273.705688	1305.495117	5704.082520	2343.408447	23.596516
274.082062	1306.118896	5763.487793	2354.872314	23.528530
274.458344	1304.914429	5788.759766	2359.561279	23.521036
274.834595	1307.861206	5770.413574	2352.162354	23.401432
275.210846	1304.936035	5690.102051	2332.396484	23.430367
275.587006	1301.774292	5586.046387	2301.661621	23.338558
275.963165	1300.913818	5493.390137	2277.335938	23.289865
276.339294	1300.182495	5446.760742	2261.893066	23.192873
276.715393	1300.763184	5423.337891	2252.149902	23.077488
277.091461	1301.064331	5414.713867	2248.192383	23.024035
277.467438	1302.591553	5411.982422	2244.837158	22.929083
277.843445	1302.526978	5416.176270	2245.202881	22.915806
278.219452	1303.602417	5431.188965	2250.214600	22.933794
278.595337	1304.226196	5454.288574	2254.709473	22.902866
278.971191	1304.570313	5486.980957	2261.893311	22.889263
279.347046	1307.344849	5512.983887	2266.001221	22.794546
279.722870	1309.753784	5537.567871	2271.916016	22.757914
280.098663	1310.377441	5561.312988	2276.023926	22.716093
280.474396	1310.979614	5597.123535	2282.003174	22.654945
280.850098	1312.055054	5649.495605	2292.563721	22.605698
281.225800	1313.108887	5724.945801	2310.092773	22.597931
281.601440	1313.517578	5833.131348	2334.784180	22.596325
281.977051	1313.797119	5982.203613	2369.347412	22.610506
282.352600	1314.700439	6137.964355	2402.684814	22.557016
282.728149	1317.496582	6282.090332	2437.054688	22.550850
283.103668	1317.475098	6392.448242	2460.369385	22.520205
283.479156	1319.604370	6480.501953	2481.963135	22.522415
283.854553	1319.668945	6564.039551	2500.782715	22.521555
284.229950	1320.851929	6661.018555	2522.161865	22.495739
284.605347	1322.895142	6765.247070	2542.013916	22.400587
284.980652	1320.787354	6863.861328	2563.995117	22.428127
285.355988	1320.916382	6953.184570	2582.879150	22.405943
285.731201	1319.260254	7031.666992	2601.677246	22.449678
286.106445	1319.776489	7098.621582	2613.958252	22.395163
286.481659	1320.228027	7166.027832	2626.884521	22.352057
286.856781	1320.464722	7232.853516	2639.617432	22.311670
287.231934	1318.894653	7298.947266	2653.016846	22.309540
287.607025	1316.464233	7346.716797	2663.728027	22.341747
287.982056	1316.894409	7365.557617	2663.233398	22.258455
288.357086	1315.732910	7357.599609	2660.329590	22.254656
288.732086	1311.667969	7326.048340	2653.662109	22.313091
289.107025	1310.850708	7290.688965	2642.370361	22.266817
289.481934	1310.571045	7261.221680	2631.401367	22.196404
289.856842	1311.818359	7236.639160	2621.529297	22.105495
290.231659	1311.022583	7237.713867	2620.754883	22.098879
290.606506	1311.689331	7248.296387	2620.131104	22.040230
290.981262	1312.184082	7264.535645	2621.443115	21.995661
291.355988	1309.947144	7285.590820	2627.594482	22.050301
291.730713	1311.646362	7312.411133	2631.616455	21.996698
292.105377	1310.377319	7339.360840	2638.348633	22.026455
292.480011	1310.484985	7357.492188	2640.198242	21.989609
292.854614	1312.549683	7364.181152	2644.542969	22.010483
293.229187	1313.861694	7380.162109	2648.736816	22.004765
293.603729	1313.517578	7405.820801	2659.706055	22.096544
293.978241	1312.506714	7443.051270	2670.502930	22.151316
294.352692	1314.033691	7473.033203	2680.396729	22.184822
294.727081	1313.603638	7494.950195	2689.645264	22.261194
295.101501	1311.560425	7516.952637	2702.141357	22.409235
295.475830	1314.722168	7571.195801	2721.111328	22.478943
295.850189	1317.367676	7669.617676	2750.276367	22.557499
296.224457	1320.572266	7832.454590	2793.572021	22.620184
296.598694	1323.067261	8046.718262	2850.546631	22.718006
296.972931	1324.938354	8301.458984	2911.694336	22.744232
297.347107	1326.938599	8538.541016	2972.690918	22.820896
297.721283	1328.874390	8714.519531	3018.158691	22.872536
298.095367	1331.175781	8806.853516	3047.796875	22.962749
298.469452	1331.648926	8820.446289	3057.045410	23.039701
298.843475	1328.057129	8795.217773	3056.507813	23.147362
299.217529	1329.046387	8756.138672	3047.130371	23.132660
299.591492	1328.444214	8698.583984	3032.935059	23.126982
299.965424	1325.196533	8618.014648	3014.717773	23.166918
300.339325	1323.841553	8485.374023	2983.939697	23.180767
300.713196	1320.120605	8301.758789	2941.848633	23.228474
301.087036	1318.830078	8080.785645	2894.036133	23.295126
301.460815	1318.313965	7865.405762	2843.212646	23.291237
301.834564	1318.830200	7684.758301	2797.916504	23.234417
302.208282	1315.969482	7537.729980	2758.685791	23.188232
302.582001	1314.270386	7416.811035	2729.241211	23.186586
302.955658	1316.012573	7311.185547	2704.098145	23.153387
303.329254	1312.506714	7221.174805	2679.041504	23.127628
303.702820	1310.958130	7142.068359	2659.576660	23.127989
304.076416	1310.807495	7075.995117	2642.413330	23.097355
304.449921	1307.430786	7021.515137	2625.830811	23.072813
304.823395	1309.603027	6969.917480	2611.614014	23.002449
305.196838	1308.527588	6920.384277	2595.612061	22.935093
305.570251	1308.183594	6865.559570	2577.867920	22.846832
305.943604	1304.828369	6805.509766	2559.672119	22.812513
306.316986	1304.312256	6761.246582	2547.433594	22.780581
306.690277	1306.420044	6728.404297	2534.012695	22.641022
307.063507	1305.581177	6712.079590	2524.656494	22.548334
307.436768	1305.989746	6721.134277	2525.452637	22.519489
307.809937	1307.258789	6748.900391	2527.366699	22.421688
308.183136	1308.011597	6803.165527	2537.690674	22.377520
308.556244	1310.054810	6877.411133	2552.402100	22.314852
308.929321	1309.172974	6967.895508	2568.640625	22.257101
309.302399	1310.226929	7060.530762	2585.331055	22.174553
309.675446	1309.043945	7157.489258	2604.903564	22.157335
310.048401	1308.054565	7253.113770	2627.809570	22.199190
310.421356	1309.237427	7348.910645	2647.403320	22.156263
310.794281	1307.839355	7451.095215	2667.943604	22.139795
311.167145	1308.248047	7564.163574	2695.000244	22.167055
311.539978	1312.119507	7661.917480	2714.701904	22.088615
311.912781	1313.324097	7733.152832	2727.929443	22.034939
312.285553	1312.012207	7749.498047	2726.595459	21.974157
312.658295	1312.399292	7722.591797	2717.626953	21.921770
313.031006	1312.227295	7670.456055	2703.259521	21.877670
313.403656	1311.839966	7615.524902	2689.795410	21.859522
313.776276	1313.603638	7565.497070	2679.901855	21.854151
314.148865	1316.313599	7539.773438	2669.986572	21.751131
314.521454	1316.442627	7537.837402	2667.448730	21.715487
314.893982	1316.958862	7538.117188	2663.577148	21.645781
315.266449	1319.109619	7502.563965	2649.639893	21.517590
315.638885	1316.851440	7438.685547	2636.025391	21.548672
316.011322	1317.281494	7355.319824	2615.893799	21.507189
316.383667	1318.270752	7282.773438	2597.891602	21.453939
316.756042	1318.722534	7224.507813	2585.352539	21.447275
317.128326	1319.754883	7172.802734	2571.630127	21.388433
317.500610	1316.872803	7118.904297	2558.316650	21.396711
317.872833	1315.517700	7058.530762	2541.605225	21.349203
318.245087	1312.592651	6980.606445	2522.936279	21.353930
318.617218	1311.775391	6885.283203	2499.234375	21.305416
318.989319	1309.839722	6806.929199	2481.490479	21.314020
319.361420	1307.043823	6756.320801	2469.295166	21.328543
319.733490	1306.484497	6723.543457	2457.508789	21.248140
320.105530	1303.193726	6701.368652	2449.679932	21.238405
320.477509	1298.741699	6679.085938	2442.496338	21.258020
320.849457	1295.622925	6653.877930	2437.334229	21.307522
321.221375	1294.181763	6644.543945	2430.666748	21.241272
321.593231	1295.364746	6637.381348	2425.225342	21.150452
321.965088	1295.988525	6641.230957	2421.783936	21.061636
322.336884	1297.451050	6650.199707	2420.665527	20.983883
322.708618	1298.461914	6680.289551	2419.955566	20.838528
323.080414	1300.526733	6712.143555	2424.214355	20.764360
323.452118	1301.537598	6778.215820	2439.528076	20.778845
323.823761	1302.053833	6891.305176	2462.047119	20.754002
324.195343	1303.752930	7021.881348	2488.566650	20.720306
324.566925	1308.140503	7158.586426	2518.226318	20.683651
324.938507	1310.484863	7291.462891	2539.282471	20.545095
325.310059	1310.893677	7398.078125	2559.865723	20.518057
325.681519	1313.496216	7515.812988	2580.685547	20.430902
326.052948	1312.979980	7614.276855	2604.086182	20.489531
326.424408	1312.786377	7704.826172	2620.453369	20.457741
326.795776	1312.786255	7749.067383	2632.842285	20.509607
327.167084	1309.667603	7759.735840	2633.659668	20.526791
327.538391	1308.957886	7717.257813	2618.474854	20.434702
327.909668	1310.183716	7621.181641	2596.278564	20.378628
328.280884	1310.743042	7526.180176	2571.522949	20.284655
328.652100	1311.216187	7433.007324	2548.724365	20.214806
329.023254	1311.689331	7353.792480	2533.044922	20.214081
329.394348	1310.377441	7294.752930	2519.107666	20.198101
329.765442	1308.334106	7218.937500	2507.816162	20.293732
330.136475	1307.710449	7146.906738	2483.856201	20.142254
330.507538	1307.065308	7068.682617	2466.520508	20.123781
330.878479	1305.237061	7011.600098	2451.292969	20.083822
331.249420	1306.183472	6968.970703	2441.979736	20.057196
331.620331	1307.000732	6957.249512	2436.409424	19.988653
331.991211	1306.032837	6973.101074	2437.570801	19.966902
332.362030	1306.054321	6997.232910	2447.012695	20.047840
332.732819	1303.387329	7032.440918	2450.647705	20.025303
333.103577	1303.451782	7069.478027	2455.766602	19.984556
333.474304	1304.312256	7093.954590	2462.541748	20.005199
333.845001	1305.193970	7117.806641	2464.219482	19.939837
334.215668	1306.075806	7138.390625	2473.295654	20.012978
334.586273	1307.280396	7167.339355	2478.521973	19.986856
334.956818	1307.753540	7190.611328	2481.984863	19.960218
335.327362	1309.108521	7225.347168	2486.394043	19.899223
335.697876	1309.818237	7243.090820	2492.739014	19.937071
336.068329	1310.441895	7256.706055	2494.803711	19.917746
336.438751	1310.312988	7261.888672	2493.276611	19.876478
336.809174	1313.345581	7257.523438	2498.352539	19.935591
337.179504	1315.646973	7261.846680	2499.040771	19.901682
337.549896	1316.485840	7286.837891	2501.708008	19.851797
337.920135	1315.797607	7324.413574	2512.289795	19.912941
338.290375	1315.668457	7372.655762	2521.129639	19.901993
338.660614	1316.980347	7418.403320	2528.980225	19.864218
339.030792	1318.636475	7470.968262	2536.916504	19.801922
339.400940	1318.249390	7504.671875	2542.788086	19.793972
339.771027	1317.582642	7537.944824	2547.627441	19.774488
340.141083	1319.088257	7578.401367	2554.251709	19.733212
340.511139	1319.712036	7612.470215	2560.596680	19.719248
340.881134	1318.528931	7659.206543	2561.908691	19.609571
341.251068	1318.141846	7686.134766	2566.726563	19.607193
341.621002	1319.733276	7708.438965	2570.812988	19.582680
341.990875	1323.131714	7728.937012	2572.770508	19.507912
342.360718	1325.304077	7735.474609	2571.953369	19.447990
342.730560	1324.400757	7744.852051	2576.362305	19.499588
343.100311	1326.293457	7763.907715	2584.750244	19.548496
343.470032	1328.272217	7813.010742	2594.536621	19.526838
343.839752	1330.057373	7885.707520	2606.409180	19.469492
344.209442	1330.982178	7960.534180	2622.282227	19.477940
344.579041	1331.993042	8052.932617	2641.295166	19.480940
344.948639	1334.509521	8144.105957	2662.158203	19.496731
345.318176	1334.853516	8244.891602	2682.934814	19.509029
345.687714	1334.552368	8335.805664	2701.388672	19.522738
346.057190	1333.756592	8412.267578	2714.486816	19.505943
346.426636	1331.971558	8482.621094	2727.929199	19.522110
346.796051	1332.552246	8530.927734	2737.349854	19.515482
347.165405	1330.508911	8543.187500	2736.489502	19.493181
347.534729	1331.261719	8527.056641	2735.113037	19.509329
347.904083	1331.498291	8478.491211	2727.779053	19.536617
348.273315	1331.261597	8410.589844	2713.519287	19.525267
348.642517	1330.874512	8338.624023	2695.560059	19.473949
349.011719	1329.304443	8267.605469	2682.999268	19.510466
349.380890	1329.691528	8203.016602	2671.922852	19.528122
349.749969	1329.261475	8157.311035	2664.222900	19.551138
350.119049	1329.390503	8122.855957	2658.264893	19.561068
350.488098	1330.616577	8108.423828	2656.738037	19.565641
350.857117	1329.541138	8104.294922	2653.877197	19.548105
351.226074	1331.283325	8127.136230	2660.114502	19.553560
351.595001	1330.100464	8150.601563	2661.856689	19.525784
351.963867	1329.304565	8194.585938	2670.889893	19.541594
352.332764	1331.240234	8246.764648	2683.429199	19.552950
352.701538	1330.745605	8309.115234	2699.216309	19.610178
353.070343	1332.810303	8385.533203	2716.336670	19.616911
353.439056	1333.756714	8478.707031	2734.037598	19.598190
353.807770	1335.348267	8577.084961	2753.695801	19.585737
354.176453	1337.864746	8670.364258	2776.085693	19.614334
354.545105	1340.381226	8772.077148	2799.572266	19.634699
354.913666	1344.833374	8899.576172	2827.339111	19.623510
355.282227	1346.661621	9039.055664	2856.740723	19.630808
355.650757	1349.651245	9191.590820	2893.670166	19.689249
356.019226	1352.554688	9350.427734	2930.341553	19.727581
356.387695	1353.350586	9525.352539	2970.346680	19.787025
356.756104	1359.179199	9727.140625	3013.728271	19.772429
357.124451	1362.641968	9968.611328	3064.551758	19.775921
357.492828	1364.685181	10213.868164	3119.418701	19.829329
357.861084	1369.115845	10435.530273	3172.306885	19.888691
358.229401	1372.191528	10625.790039	3215.387451	19.918694
358.597595	1372.944458	10758.193359	3246.165527	19.959206
358.965759	1374.062866	10865.517578	3271.114746	19.986944
359.333923	1377.073975	10958.734375	3298.494629	20.053108
359.702057	1379.246216	11091.374023	3324.906494	20.033306
360.070129	1382.429565	11249.199219	3358.287354	20.025377
360.438141	1384.451172	11443.826172	3400.012695	20.036648
360.806122	1385.612671	11654.196289	3447.739014	20.081898
361.174133	1389.699219	11906.572266	3505.445068	20.117632
361.542053	1394.022339	12192.563477	3565.387695	20.107950
361.909912	1397.442139	12476.599609	3625.008545	20.105919
362.277771	1399.184204	12736.912109	3675.208008	20.074781
362.645599	1402.862061	12921.149414	3717.750732	20.097507
363.013367	1404.152588	13021.571289	3739.753906	20.104305
363.381134	1404.346191	13047.337891	3742.120117	20.078808
363.748810	1400.732788	12986.578125	3732.269287	20.124008
364.116455	1398.990601	12855.375977	3705.728027	20.134949
364.484100	1396.818237	12650.535156	3665.981201	20.163677
364.851715	1394.904053	12370.671875	3606.834229	20.152851
365.219238	1388.322510	11973.160156	3523.275146	20.169914
365.586761	1382.493896	11498.027344	3426.274170	20.204374
365.954224	1378.321289	11039.109375	3327.853271	20.179844
366.321686	1372.342041	10633.854492	3246.294678	20.233765
366.689117	1367.481323	10359.626953	3186.093994	20.224459
367.056458	1363.287231	10173.711914	3148.411621	20.261501
367.423737	1361.437500	10042.621094	3122.451660	20.285416
367.791077	1363.050659	9931.187500	3100.448975	20.277435
368.158295	1360.985840	9845.670898	3085.199463	20.321480
368.525543	1359.157593	9765.295898	3065.433594	20.297976
368.892700	1357.910156	9695.201172	3051.861816	20.317770
369.259827	1353.995728	9637.989258	3038.096924	20.329582
369.626953	1353.866699	9598.737305	3029.666260	20.325357
369.994019	1351.758911	9565.443359	3024.783691	20.368750
370.361053	1352.275146	9548.214844	3022.116943	20.374014
370.728027	1352.189087	9533.718750	3022.718750	20.418304
371.094971	1351.780396	9534.988281	3027.493652	20.477461
371.461914	1352.769775	9558.130859	3033.687744	20.485605
371.828796	1351.737427	9594.414063	3044.355713	20.534813
372.195618	1350.339355	9626.719727	3053.819336	20.582426
372.562408	1351.974121	9658.831055	3066.315430	20.637663
372.929199	1351.586792	9693.179688	3078.897705	20.707207
373.295898	1355.501343	9733.291992	3092.706055	20.735832
373.662598	1356.060547	9780.587891	3105.675049	20.768103
374.029236	1356.576660	9817.689453	3115.848633	20.792440
374.395844	1356.877808	9856.899414	3128.301758	20.840229
374.762421	1355.823853	9897.225586	3142.647705	20.919563
375.128967	1357.114380	9936.629883	3155.638184	20.962999
375.495483	1354.533447	9986.249023	3174.263916	21.081909
375.861908	1355.931519	10070.731445	3196.503174	21.120068
376.228333	1357.974731	10203.887695	3234.637451	21.215025
376.594727	1358.942505	10389.137695	3281.976563	21.295597
376.961090	1361.545044	10614.305664	3343.941162	21.424915
377.327393	1363.480713	10855.839844	3406.679932	21.524672
377.693665	1365.072388	11066.941406	3465.697754	21.651760
378.059906	1364.427246	11233.047852	3519.274902	21.835346
378.426086	1365.932739	11330.974609	3554.806152	21.965523
378.792267	1369.825684	11394.444336	3576.959473	22.017134
379.158386	1371.030151	11416.447266	3589.778320	22.087168
379.524445	1369.976318	11407.844727	3597.134277	22.187559
379.890503	1369.309448	11373.172852	3601.672119	22.315006
380.256531	1369.072998	11302.153320	3596.015625	22.419456
380.622467	1364.900513	11182.784180	3582.529785	22.587652
380.988403	1360.878418	11019.000977	3551.321777	22.679804
381.354279	1356.146606	10836.203125	3525.468994	22.883009
381.720154	1352.726807	10673.344727	3501.272705	23.051538
382.085968	1351.909424	10543.047852	3482.388428	23.179707
382.451752	1349.995239	10486.180664	3481.507080	23.330433
382.817474	1345.026855	10469.597656	3495.465820	23.567564
383.183197	1343.693359	10503.063477	3519.898682	23.759335
383.548859	1345.500000	10561.652344	3550.375732	23.924038
383.914490	1344.467651	10627.725586	3585.068115	24.135929
384.280060	1345.672119	10690.206055	3621.352295	24.353062
384.645599	1349.844727	10754.623047	3656.259521	24.523861
385.011108	1351.522339	10825.126953	3698.652100	24.775469
385.376617	1353.823730	10908.878906	3738.054688	24.952562
385.742035	1354.684082	11003.621094	3783.888184	25.175871
386.107452	1356.727417	11107.333984	3830.281250	25.368204
386.472778	1357.028442	11198.656250	3877.899902	25.614376
386.838135	1359.932007	11293.549805	3924.959473	25.821682
387.203430	1361.437622	11367.687500	3976.084229	26.130133
387.568634	1361.286987	11435.739258	4019.444336	26.385130
387.933838	1362.233276	11474.819336	4059.814941	26.675488
388.299042	1361.329956	11511.188477	4096.034668	26.943277
388.664124	1358.791992	11539.451172	4133.007324	27.249859
389.029236	1358.705933	11556.485352	4165.032715	27.518997
389.394318	1358.598511	11564.163086	4194.326660	27.786097
389.759308	1359.050049	11561.776367	4223.899902	28.079258
390.124298	1359.931885	11585.113281	4268.572266	28.445856
390.489227	1360.405151	11632.730469	4322.212891	28.832884
390.854126	1363.179688	11712.761719	4385.769043	29.204941
391.218964	1363.287231	11838.283203	4457.176270	29.535946
391.583771	1363.588379	11981.677734	4548.327637	29.993523
391.948578	1364.190552	12133.137695	4635.800781	30.380039
392.313354	1365.201538	12250.250000	4712.175293	30.748356
392.678040	1366.061890	12350.002930	4782.872070	31.107323
393.042694	1366.363037	12448.102539	4857.612793	31.504528
393.407349	1366.793091	12559.469727	4941.515625	31.938049
393.771942	1366.276855	12693.099609	5034.430176	32.384663
394.136505	1365.739136	12809.715820	5118.160645	32.789490
394.501007	1365.158325	12885.081055	5187.890137	33.183659
394.865479	1362.362427	12878.089844	5235.702148	33.635216
395.229919	1360.469604	12786.056641	5257.704590	34.109715
395.594360	1360.104004	12648.211914	5255.941406	34.512760
395.958710	1358.168213	12487.438477	5251.812012	34.985615
396.323029	1359.523315	12344.819336	5253.940918	35.451183
396.687286	1358.146729	12222.093750	5259.361328	35.909733
397.051544	1360.039551	12111.457031	5262.049805	36.292984
397.415771	1359.179199	11980.452148	5257.576172	36.703667
397.779938	1358.318726	11827.401367	5246.843750	37.142937
398.144043	1355.673340	11671.833984	5235.896484	37.613056
398.508148	1356.469116	11518.610352	5225.895020	38.076874
398.872192	1356.189575	11394.616211	5229.142578	38.581276
399.236237	1355.350830	11314.026367	5242.735840	39.035160
399.600189	1356.189575	11257.115234	5267.857422	39.508102
399.964111	1356.856323	11216.551758	5295.409180	39.945988
400.328003	1354.425903	11190.957031	5328.896973	40.405212
400.691925	1356.275635	11172.675781	5365.783203	40.844990
401.055695	1353.866699	11166.674805	5402.776855	41.261482
401.419495	1353.544067	11164.954102	5446.051270	41.711716
401.783234	1353.888184	11182.396484	5495.089355	42.134586
402.146942	1355.823853	11181.772461	5537.288086	42.555328
402.510620	1354.533325	11216.336914	5595.897949	43.008003
402.874237	1354.339844	11263.202148	5657.324707	43.425621
403.237823	1355.866943	11339.016602	5734.882813	43.864071
403.601379	1355.888428	11444.148438	5827.754395	44.327431
403.964874	1355.372192	11595.048828	5935.552734	44.729740
404.328369	1356.146484	11759.886719	6053.093750	45.146717
404.691772	1357.630615	11933.800781	6180.830078	45.604404
405.055176	1357.501465	12084.485352	6298.995605	46.066013
405.418549	1358.426392	12229.471680	6415.181641	46.515816
405.781860	1359.200684	12337.485352	6516.204590	46.974586
406.145142	1360.426636	12448.811523	6614.754883	47.385876
406.508362	1362.254761	12518.819336	6697.023438	47.817307
406.871552	1361.136353	12561.362305	6762.106445	48.221977
407.234741	1361.867554	12562.030273	6812.305176	48.663914
407.597870	1360.792236	12520.647461	6842.159180	49.116829
407.960938	1362.340820	12456.339844	6856.934570	49.527622
408.323975	1362.663574	12370.886719	6864.033203	49.975094
408.686981	1360.727783	12293.264648	6870.421387	50.397205
409.049957	1361.416016	12241.559570	6892.789551	50.839161
409.412903	1363.007690	12215.985352	6929.223633	51.287453
409.775787	1364.405762	12229.450195	6987.468262	51.753696
410.138611	1363.459351	12273.197266	7056.336426	52.181610
410.501434	1364.298218	12328.452148	7121.871582	52.512699
410.864227	1366.771606	12373.488281	7191.815430	52.922630
411.226929	1367.717896	12423.409180	7253.393555	53.236614
411.589630	1369.524536	12473.394531	7315.573730	53.549343
411.952271	1370.793457	12497.547852	7364.504395	53.867561
412.314911	1371.116089	12522.303711	7414.316895	54.193336
412.677490	1370.599976	12536.693359	7461.053223	54.544170
413.040009	1373.675659	12560.458984	7501.144043	54.774174
413.402496	1372.557129	12553.318359	7519.490723	54.977772
413.764984	1368.427612	12534.865234	7525.276367	55.137089
414.127380	1367.889893	12502.602539	7533.448730	55.372406
414.489777	1366.900635	12490.407227	7554.504883	55.626381
414.852112	1367.459839	12512.194336	7577.476563	55.721531
415.214386	1366.276855	12548.994141	7617.437988	55.900200
415.576660	1366.018799	12629.650391	7678.930176	56.046852
415.938904	1364.233643	12746.977539	7761.628418	56.202568
416.301086	1366.900635	12896.694336	7840.197266	56.144081
416.663208	1370.793579	13069.619141	7930.078613	56.067898
417.025299	1371.159180	13253.083984	8041.727051	56.140465
417.387390	1373.374512	13469.753906	8170.152832	56.188538
417.749420	1380.472168	13732.582031	8323.785156	56.211555
418.111389	1384.580200	14027.824219	8491.719727	56.212944
418.473328	1387.720337	14356.853516	8684.388672	56.261806
418.835266	1391.333740	14718.684570	8894.263672	56.297234
419.197144	1397.441895	15121.508789	9129.647461	56.340485
419.558960	1401.292114	15548.528320	9382.689453	56.416656
419.920746	1408.045532	16017.491211	9672.144531	56.566818
420.282471	1412.325562	16561.236328	10023.371094	56.842670
420.644226	1418.304810	17156.554688	10400.665039	57.073437
421.005920	1422.219238	17755.876953	10790.519531	57.355804
421.367523	1427.273682	18320.054688	11173.555664	57.694954
421.729126	1429.531860	18822.029297	11524.332031	58.041115
422.090668	1432.177490	19260.212891	11842.500000	58.392986
422.452179	1434.156128	19616.773438	12117.846680	58.757717
422.813660	1435.876831	19942.878906	12390.374023	59.191093
423.175110	1438.242676	20241.583984	12656.106445	59.658882
423.536469	1438.930908	20520.156250	12910.008789	60.117096
423.897858	1439.425659	20782.404297	13156.318359	60.574398
424.259155	1439.124512	20923.882813	13329.866211	61.025867
424.620453	1437.791016	20975.201172	13458.484375	61.526543
424.981689	1438.092163	20959.500000	13546.688477	62.027271
425.342865	1438.715942	20913.107422	13598.459961	62.439663
425.704041	1441.017334	20834.367188	13632.547852	62.864491
426.065186	1441.318359	20749.023438	13658.552734	63.276470
426.426239	1441.447388	20644.773438	13664.553711	63.650986
426.787262	1439.941895	20466.019531	13611.235352	63.971634
427.148254	1437.102783	20225.689453	13500.812500	64.207649
427.509216	1434.994995	19907.519531	13344.061523	64.469078
427.870178	1432.973145	19504.158203	13116.636719	64.653557
428.231049	1430.155762	19086.945313	12878.391602	64.837585
428.591858	1426.585327	18670.699219	12635.738281	65.002785
428.952698	1421.509399	18269.832031	12387.858398	65.088669
429.313446	1416.842163	17885.699219	12157.765625	65.219604
429.674164	1412.239380	17541.742188	11936.360352	65.247650
430.034851	1408.862793	17206.625000	11726.527344	65.310921
430.395477	1408.174561	16918.267578	11536.225586	65.299744
430.756104	1406.539917	16688.412109	11390.400391	65.331398
431.116699	1404.991333	16488.386719	11267.955078	65.389549
431.477203	1406.174316	16316.538086	11167.469727	65.466515
431.837646	1405.937744	16210.290039	11117.441406	65.598976
432.198090	1405.442993	16155.550781	11100.127930	65.726196
432.558502	1405.980713	16141.225586	11114.108398	65.883720
432.918884	1408.196045	16152.410156	11156.393555	66.115410
433.279205	1407.335693	16212.224609	11229.003906	66.340706
433.639465	1406.496948	16264.639648	11314.606445	66.684708
433.999756	1405.593628	16348.177734	11422.103516	67.033318
434.359924	1404.410645	16430.123047	11544.247070	67.483231
434.720093	1404.518188	16499.076172	11665.660156	67.979080
435.080200	1403.464355	16569.537109	11787.290039	68.467468
435.440277	1401.679077	16644.814453	11913.735352	68.962563
435.800354	1398.495972	16696.929688	12025.856445	69.466980
436.160370	1396.302124	16723.988281	12126.297852	70.004013
436.520325	1393.333984	16741.214844	12219.750000	70.540138
436.880249	1391.785278	16744.398438	12303.609375	71.074699
437.240112	1393.635010	16742.140625	12381.190430	71.587135
437.599976	1393.355347	16763.734375	12492.343750	72.210243
437.959808	1397.248413	16810.578125	12609.691406	72.745110
438.319519	1396.538574	16871.531250	12736.244141	73.277611
438.679260	1397.011841	16968.898438	12879.897461	73.741135
439.038940	1398.001221	17101.580078	13068.071289	74.314720
439.398590	1401.313354	17284.636719	13288.099609	74.838158
439.758179	1403.593384	17510.082031	13551.313477	75.421280
440.117767	1407.679810	17808.658203	13861.631836	75.934204
440.477295	1412.691284	18135.470703	14198.597656	76.458023
440.836792	1416.992798	18487.625000	14542.038086	76.886696
441.196198	1416.627075	18806.761719	14873.153320	77.380234
441.555603	1421.165405	19081.398438	15159.468750	77.792313
441.914978	1420.154419	19270.431641	15387.477539	78.247093
442.274323	1422.004272	19408.857422	15568.531250	78.649261
442.633575	1425.854004	19502.654297	15725.281250	79.103752
442.992859	1430.349365	19538.033203	15830.262695	79.523773
443.352051	1429.618042	19510.417969	15872.806641	79.881355
443.711182	1431.231201	19432.322266	15868.957031	80.204720
444.070313	1430.263306	19310.414063	15834.047852	80.557396
444.429382	1427.660767	19152.394531	15783.590820	80.993767
444.788452	1426.649902	19016.162109	15741.175781	81.381027
445.147430	1428.886719	18932.904297	15737.821289	81.746574
445.506409	1427.617676	18915.289063	15780.363281	82.073509
445.865295	1427.380981	18997.214844	15887.711914	82.302032
446.224182	1430.048096	19166.203125	16078.660156	82.591820
446.583038	1428.607056	19404.511719	16310.516602	82.788101
446.941833	1427.725220	19672.609375	16551.902344	82.895439
447.300598	1428.564087	19946.794922	16816.900391	83.098305
447.659302	1429.467529	20195.962891	17054.201172	83.258659
448.018005	1432.112915	20390.330078	17257.470703	83.474922
448.376648	1434.435913	20546.457031	17407.320313	83.575066
448.735229	1433.812256	20616.380859	17503.050781	83.770004
449.093781	1430.155762	20626.341797	17533.162109	83.886490
449.452301	1426.327271	20563.126953	17506.900391	84.029587
449.810791	1426.456299	20426.488281	17427.386719	84.215286
450.169220	1422.499023	20185.425781	17253.320313	84.372879
450.527618	1420.004028	19889.474609	17031.529297	84.526108
450.885956	1415.831421	19574.554688	16812.773438	84.790886
451.244263	1413.293457	19276.238281	16586.658203	84.943245
451.602539	1410.927612	19023.753906	16407.279297	85.144493
451.960785	1408.432617	18834.052734	16255.840820	85.204468
452.318970	1408.174561	18676.830078	16150.152344	85.368408
452.677124	1405.507568	18535.242188	16053.150391	85.510040
453.035248	1404.324585	18393.332031	15959.891602	85.676384
453.393311	1406.131226	18235.076172	15849.964844	85.827324
453.751312	1404.216919	18067.550781	15724.165039	85.936874
454.109314	1406.432251	17921.660156	15614.728516	86.031479
454.467285	1404.862183	17778.740234	15510.200195	86.145370
454.825195	1404.432129	17644.810547	15397.649414	86.163116
455.183044	1402.474854	17489.566406	15281.032227	86.271393
455.540894	1400.797363	17304.662109	15138.627930	86.380447
455.898651	1399.248535	17107.042969	14998.458984	86.576195
456.256378	1395.871948	16915.341797	14839.321289	86.623123
456.614105	1394.301758	16754.355469	14720.016602	86.755653
456.971771	1392.602661	16626.273438	14621.359375	86.838928
457.329407	1389.247437	16578.355469	14593.485352	86.932281
457.686981	1388.881836	16595.927734	14619.660156	87.004265
458.044525	1384.881348	16716.048828	14734.427734	87.074562
458.402008	1386.731079	16913.148438	14916.041016	87.137360
458.759460	1390.258301	17222.691406	15197.302734	87.207344
459.116913	1395.850464	17682.341797	15603.331055	87.234756
459.474274	1400.883301	18285.017578	16126.750000	87.217186
459.831635	1406.840942	18900.771484	16667.355469	87.233200
460.188904	1411.508301	19491.898438	17184.794922	87.239746
460.546173	1418.562866	19993.939453	17618.742188	87.213196
460.903381	1425.251831	20382.978516	17971.968750	87.282181
461.260559	1430.177246	20662.236328	18221.332031	87.308151
461.617706	1433.424927	20856.863281	18409.701172	87.400986
461.974762	1433.037842	20902.890625	18466.998047	87.488899
462.331848	1433.016357	20853.939453	18434.736328	87.543320
462.688843	1426.671509	20652.968750	18277.748047	87.645981
463.045837	1421.208374	20278.253906	17976.767578	87.795082
463.402740	1416.068115	19744.960938	17538.259766	87.960533
463.759613	1410.131836	19186.871094	17054.242188	88.003265
464.116486	1404.905396	18641.621094	16591.130859	88.103943
464.473267	1399.055176	18194.984375	16205.621094	88.155685
464.830048	1397.205444	17837.132813	15904.359375	88.243416
465.186737	1396.474243	17553.250000	15660.133789	88.282837
465.543457	1391.742432	17325.523438	15467.788086	88.340904
465.900085	1392.796265	17206.626953	15361.752930	88.333794
466.256683	1391.161621	17162.019531	15338.717773	88.438797
466.613251	1393.592041	17192.710938	15373.990234	88.488464
466.969757	1393.721069	17282.013672	15444.579102	88.435295
467.326233	1393.893066	17380.392578	15534.074219	88.450768
467.682678	1394.430908	17445.085938	15605.502930	88.538895
468.039093	1393.979248	17487.242188	15649.122070	88.578323
468.395416	1392.366089	17481.046875	15651.703125	88.629623
468.751740	1390.365723	17475.798828	15644.196289	88.613281
469.108032	1387.333130	17453.904297	15631.700195	88.658417
469.464233	1386.924561	17425.257813	15610.774414	88.686584
469.820435	1387.462158	17371.595703	15581.134766	88.798508
470.176575	1388.903198	17264.826172	15484.456055	88.785721
470.532715	1390.709839	17116.185547	15347.493164	88.752693
470.888763	1389.871094	16959.392578	15228.790039	88.884674
471.244751	1389.957153	16821.849609	15107.206055	88.888962
471.600769	1388.838745	16735.945313	15030.034180	88.884476
471.956696	1391.419800	16686.154297	14983.512695	88.867790
472.312592	1395.119141	16715.039063	15018.077148	88.923164
472.668457	1394.172852	16788.876953	15090.428711	88.967323
473.024292	1395.613892	16909.494141	15200.765625	88.985809
473.380035	1399.872437	16996.687500	15286.087891	89.032379
473.735779	1402.711548	17086.396484	15358.075195	88.980133
474.091492	1400.130615	17172.923828	15436.922852	88.993698
474.447113	1398.689453	17280.419922	15547.022461	89.085587
474.802765	1400.238159	17379.853516	15620.322266	88.988899
475.158295	1401.227417	17497.501953	15709.881836	88.894203
475.513824	1401.205811	17608.527344	15809.744141	88.901413
475.869324	1400.495972	17745.513672	15943.008789	88.972145
476.224762	1399.420532	17873.398438	16061.452148	89.001152
476.580170	1401.743408	17999.607422	16173.378906	88.997215
476.935516	1402.668335	18130.783203	16277.649414	88.922043
477.290863	1401.721924	18340.294922	16440.335938	88.783249
477.646118	1399.807739	18551.289063	16614.207031	88.706039
478.001373	1403.163208	18806.695313	16830.728516	88.646179
478.356537	1404.561279	19087.570313	17049.507813	88.474457
478.711700	1408.927368	19371.455078	17289.646484	88.410271
479.066833	1412.863281	19646.175781	17537.355469	88.434242
479.421875	1416.003418	19939.740234	17794.398438	88.418419
479.776917	1418.713501	20251.736328	18063.314453	88.379868
480.131897	1422.756958	20583.023438	18337.972656	88.282776
480.486847	1425.187378	20960.789063	18661.841797	88.232010
480.841766	1427.617798	21395.488281	19052.876953	88.268097
481.196594	1431.403198	21904.089844	19503.558594	88.274467
481.551453	1438.608521	22567.785156	20072.273438	88.189262
481.906219	1446.028809	23387.111328	20797.244141	88.196266
482.260986	1455.320190	24480.345703	21776.611328	88.257408
482.615662	1465.364380	26038.882813	23161.298828	88.289902
482.970306	1480.312500	28242.232422	25118.404297	88.327339
483.324951	1502.057129	31073.486328	27715.757813	88.645363
483.679504	1528.103394	34178.042969	30650.894531	89.197075
484.034027	1552.192261	37240.316406	33555.101563	89.673836
484.388519	1577.485840	40007.261719	36121.746094	89.889313
484.742981	1599.682007	42335.035156	38207.273438	89.866882
485.097351	1615.727051	44198.640625	39856.722656	89.803612
485.451721	1625.018677	45581.304688	41079.996094	89.759583
485.806030	1633.750732	46583.941406	41941.257813	89.671494
486.160309	1640.482788	47246.304688	42506.878906	89.607849
486.514557	1645.494263	47545.160156	42734.152344	89.518425
486.868744	1646.569580	47432.246094	42605.839844	89.458694
487.222931	1643.171387	46820.234375	41941.066406	89.199898
487.577026	1636.890991	45926.082031	40943.484375	88.749855
487.931122	1628.933105	44990.953125	39897.890625	88.254555
488.285126	1619.964111	44104.308594	38934.609375	87.831520
488.639099	1612.952637	43301.371094	38133.199219	87.602859
488.993042	1607.553955	42603.714844	37452.597656	87.435120
489.346954	1604.542969	42024.195313	36888.871094	87.294983
489.700836	1601.617676	41487.574219	36389.027344	87.217186
490.054626	1597.423828	40928.410156	35852.957031	87.095535
490.408417	1590.670044	40378.378906	35327.453125	86.978027
490.762146	1584.217896	39816.289063	34771.468750	86.804741
491.115814	1583.056274	39386.949219	34351.675781	86.680542
491.469513	1578.711670	39061.570313	33985.546875	86.457748
491.823090	1576.281250	38661.800781	33562.609375	86.250183
492.176666	1572.173340	38210.628906	33119.328125	86.103935
492.530182	1567.678101	37734.078125	32661.832031	85.975258
492.883698	1562.967896	37229.519531	32188.332031	85.865784
493.237091	1558.687622	36680.738281	31682.849609	85.769943
493.590515	1550.321045	36093.078125	31126.349609	85.621506
493.943878	1543.266479	35411.636719	30484.914063	85.453323
494.297150	1537.846558	34507.351563	29673.373047	85.338036
494.650452	1529.049683	33330.281250	28623.050781	85.197960
495.003662	1512.875488	31807.943359	27253.335938	84.965843
495.356873	1500.314941	30131.712891	25775.474609	84.785103
495.710022	1487.066040	28584.187500	24414.705078	84.612823
496.063110	1476.828247	27306.437500	23279.119141	84.408134
496.416168	1468.074341	26367.935547	22439.166016	84.221718
496.769165	1463.084473	25714.408203	21848.251953	84.057961
497.122162	1457.449463	25311.005859	21462.421875	83.865784
497.475098	1456.632202	25029.080078	21187.484375	83.703026
497.828003	1456.223511	24893.019531	21048.824219	83.597610
498.180847	1454.029785	24823.205078	20953.974609	83.443016
498.533661	1454.416870	24769.218750	20869.939453	83.275520
498.886444	1453.621094	24713.750000	20794.039063	83.148369
499.239136	1451.964966	24632.236328	20688.607422	82.987129
499.591827	1449.900269	24482.648438	20512.414063	82.762657
499.944427	1449.039795	24238.423828	20274.277344	82.605293
500.297089	1446.007202	23928.687500	19970.820313	82.395927
500.649628	1444.630615	23578.921875	19636.541016	82.188812
501.002136	1440.371948	23203.154297	19290.476563	82.021240
501.354584	1437.532837	22852.552734	18970.609375	81.872803
501.707001	1434.156250	22491.947266	18633.105469	81.674995
502.059387	1432.005371	22181.478516	18338.445313	81.478889
502.411682	1429.747070	21899.015625	18077.056641	81.328300
502.764038	1429.531982	21673.394531	17853.955078	81.132851
503.116302	1429.575073	21490.425781	17660.705078	80.909477
503.468475	1428.370605	21362.968750	17534.517578	80.794945
503.820709	1427.445679	21297.326172	17442.267578	80.598480
504.172852	1427.768433	21260.976563	17367.248047	80.367630
504.524902	1425.101440	21239.255859	17311.906250	80.179070
504.876953	1428.177124	21248.654297	17268.654297	79.919762
505.228912	1427.918945	21261.386719	17230.048828	79.674057
505.580872	1427.553345	21280.679688	17205.830078	79.475021
505.932770	1426.391968	21267.861328	17164.253906	79.318031
506.284698	1425.209106	21266.160156	17111.109375	79.058205
506.636505	1425.660645	21272.806641	17062.998047	78.788849
506.988342	1423.789551	21269.794922	17010.882813	78.540207
507.340088	1424.671387	21276.398438	16961.240234	78.263062
507.691772	1424.456177	21279.777344	16915.923828	78.021744
508.043396	1423.681763	21298.380859	16901.126953	77.875114
508.395050	1425.337769	21345.074219	16883.080078	77.600136
508.746582	1426.262695	21429.212891	16905.320313	77.383881
509.098114	1426.929565	21563.166016	16954.185547	77.111015
509.449646	1429.446045	21709.593750	17005.998047	76.806892
509.801086	1431.080688	21892.970703	17087.623047	76.515617
510.152557	1433.403442	22072.626953	17175.437500	76.272415
510.503906	1433.640137	22255.166016	17260.267578	76.010887
510.855194	1437.210449	22443.490234	17355.826172	75.780273
511.206482	1438.801880	22627.857422	17431.255859	75.475075
511.557709	1440.243042	22821.171875	17517.482422	75.194298
511.908844	1445.340332	23011.128906	17596.373047	74.891922
512.260010	1446.136230	23173.730469	17660.574219	74.626015
512.611206	1446.588013	23288.087891	17682.490234	74.335106
512.962219	1449.663574	23368.722656	17679.544922	74.044609
513.313232	1450.394897	23425.783203	17669.197266	73.804398
513.664246	1450.932617	23455.679688	17620.783203	73.483467
514.015137	1450.760620	23457.228516	17553.250000	73.171616
514.366028	1453.728638	23439.097656	17474.035156	72.868034
514.716919	1452.115356	23387.007813	17365.376953	72.547707
515.067688	1450.416138	23307.533203	17247.361328	72.273689
515.418396	1449.555786	23222.382813	17124.722656	71.994179
515.769104	1448.136353	23144.609375	16990.513672	71.635498
516.119812	1450.093506	23090.453125	16888.736328	71.341896
516.470459	1450.050537	23097.982422	16827.591797	71.034691
516.821106	1450.824829	23162.376953	16805.759766	70.722412
517.171631	1453.126221	23358.894531	16866.927734	70.364128
517.522095	1457.212769	23642.285156	16988.794922	70.009155
517.872559	1461.062622	24070.144531	17210.841797	69.661293
518.222961	1464.977173	24575.886719	17485.693359	69.321007
518.573364	1469.493896	25124.449219	17788.205078	68.986435
518.923645	1476.312012	25645.048828	18065.250000	68.638000
519.273987	1481.818115	26105.107422	18294.031250	68.277687
519.624207	1483.925903	26452.355469	18445.640625	67.932648
519.974487	1483.646362	26733.636719	18550.750000	67.592514
520.324646	1484.850708	26895.742188	18579.376953	67.272438
520.674744	1483.000977	26977.429688	18546.277344	66.929436
521.024780	1481.710449	26911.783203	18419.638672	66.605896
521.374878	1480.419922	26728.537109	18223.548828	66.314369
521.724792	1477.086060	26432.779297	17938.373047	65.962051
522.074707	1472.505005	26056.068359	17609.513672	65.641457
522.424744	1468.870117	25661.351563	17266.181641	65.298439
522.774536	1464.095459	25332.281250	16958.080078	64.914795
523.124329	1462.159668	25042.888672	16690.734375	64.580589
523.474182	1458.589478	24903.343750	16517.960938	64.233437
523.823914	1461.815674	24869.898438	16407.300781	63.847542
524.173523	1463.321167	24982.623047	16382.975586	63.435783
524.523132	1467.084961	25229.251953	16451.070313	63.058159
524.872803	1469.020630	25632.398438	16606.208984	62.645168
525.222290	1474.118042	26245.767578	16889.962891	62.231804
525.571777	1480.118896	26965.470703	17234.695313	61.818165
525.921326	1488.958740	27765.914063	17629.453125	61.424522
526.270752	1495.389526	28603.373047	18043.675781	61.045803
526.620178	1505.949951	29496.150391	18493.515625	60.691120
526.969482	1513.800415	30569.894531	19044.810547	60.335052
527.318787	1527.286011	31845.470703	19709.923828	59.972713
527.668030	1539.803589	33489.312500	20619.800781	59.719219
528.017212	1559.289917	35522.765625	21795.302734	59.581692
528.366394	1579.442871	37770.765625	23138.716797	59.570282
528.715515	1603.768677	39934.906250	24444.125000	59.586952
529.064636	1620.781616	41741.433594	25457.304688	59.412102
529.413635	1635.256348	43115.664063	26191.718750	59.200150
529.762695	1642.827271	44061.628906	26639.281250	58.927769
530.111633	1649.752686	44697.285156	26889.158203	58.631485
530.460510	1649.731201	44978.562500	26930.605469	58.346542
530.809387	1647.408325	44862.527344	26731.419922	58.044529
531.158142	1642.504639	44333.128906	26308.873047	57.779358
531.506958	1635.901611	43292.691406	25549.917969	57.407246
531.855652	1623.814087	41803.566406	24490.023438	56.909779
532.204407	1609.554199	40108.777344	23257.031250	56.228348
532.552979	1591.637939	38622.894531	22123.580078	55.444893
532.901611	1580.238647	37507.550781	21262.783203	54.784351
533.250183	1573.549683	36804.671875	20661.525391	54.179306
533.598755	1566.581299	36351.496094	20234.742188	53.667404
533.947205	1563.010864	35978.953125	19887.000000	53.242733
534.295593	1561.505371	35663.878906	19593.589844	52.876328
534.643982	1561.634399	35411.527344	19347.062500	52.542049
534.992249	1567.914795	35183.628906	19107.744141	52.177471
535.340576	1561.526855	34984.875000	18894.857422	51.859947
535.688843	1556.752075	34779.281250	18684.013672	51.553158
536.037048	1552.041748	34511.781250	18428.884766	51.204422
536.385315	1550.880371	34046.386719	18067.398438	50.827084
536.733398	1545.288208	33382.691406	17605.320313	50.443916
537.081421	1536.878540	32527.445313	17062.652344	50.098385
537.429443	1531.695190	31672.181641	16520.435547	49.729591
537.777466	1528.555054	30902.644531	16021.449219	49.339043
538.125427	1524.640625	30244.908203	15596.233398	48.995338
538.473267	1519.865723	29722.843750	15241.372070	48.652683
538.821167	1509.907471	29287.111328	14939.141602	48.346245
539.169006	1508.853638	28941.242188	14681.024414	48.016857
539.516846	1508.401978	28654.732422	14445.768555	47.657883
539.864502	1509.240723	28495.763672	14267.144531	47.275093
540.212219	1507.928833	28504.111328	14166.271484	46.889381
540.559875	1511.520630	28838.193359	14221.224609	46.510254
540.907410	1519.500122	29597.880859	14454.500000	46.067471
541.254944	1530.125000	30617.769531	14819.943359	45.688877
541.602478	1536.168823	31697.882813	15214.937500	45.351429
541.949951	1542.857910	32720.099609	15561.969727	44.965847
542.297363	1549.718872	33602.207031	15855.920898	44.633671
542.644714	1555.117310	34395.015625	16110.274414	44.321568
542.992126	1562.107544	35014.703125	16283.930664	44.008018
543.339355	1564.710083	35429.875000	16370.436523	43.719635
543.686646	1564.580933	35497.582031	16305.203125	43.440372
544.033813	1562.494873	35207.761719	16076.809570	43.139248
544.380920	1554.149536	34458.527344	15649.444336	42.837139
544.728027	1542.900757	33316.277344	15047.327148	42.502335
545.075134	1530.189575	31969.875000	14362.920898	42.157898
545.422180	1519.500000	30666.382813	13704.556641	41.805695
545.769165	1509.111694	29513.033203	13118.184570	41.455170
546.116150	1500.379395	28531.037109	12605.559570	41.083645
546.463013	1491.259888	27665.556641	12151.181641	40.726681
546.809875	1481.581543	26966.525391	11771.738281	40.377396
547.156677	1477.903564	26331.867188	11416.747070	39.988972
547.503418	1472.526611	25801.994141	11120.969727	39.657440
547.850098	1467.601318	25317.220703	10848.483398	39.333466
548.196777	1466.676270	24898.181641	10602.087891	38.987728
548.543396	1465.321411	24474.513672	10369.801758	38.699669
548.890015	1459.385132	24032.888672	10121.253906	38.371841
549.236633	1453.341309	23521.126953	9854.726563	38.070812
549.583069	1448.588013	22973.126953	9582.649414	37.789715
549.929504	1444.006836	22375.375000	9292.097656	37.494400
550.275879	1438.049072	21767.470703	8991.886719	37.157169
550.622253	1435.747925	21120.251953	8680.817383	36.805954
550.968567	1428.047974	20528.802734	8396.159180	36.480820
551.314819	1424.520630	20002.304688	8137.718262	36.135624
551.661072	1421.982788	19598.126953	7927.176270	35.789730
552.007263	1416.218628	19304.757813	7765.134277	35.491528
552.353394	1411.852417	19120.906250	7639.698730	35.167580
552.699524	1410.153442	19001.708984	7541.923828	34.856331
553.045593	1407.249756	18950.607422	7467.075195	34.541992
553.391602	1407.701294	18928.796875	7401.711426	34.210247
553.737549	1407.895020	18905.654297	7345.791016	33.935177
554.083435	1408.690796	18871.564453	7285.053223	33.650604
554.429321	1405.744263	18837.603516	7221.819824	33.364632
554.775146	1404.711792	18766.435547	7157.704590	33.136066
555.120972	1401.593018	18699.888672	7087.200195	32.868023
555.466675	1400.001465	18572.431641	7002.717285	32.626228
555.812439	1400.861816	18412.195313	6904.769043	32.354355
556.158081	1400.431641	18199.246094	6791.013672	32.089062
556.503662	1400.495972	17978.443359	6674.633301	31.814175
556.849182	1400.818848	17754.201172	6557.436035	31.532419
557.194702	1397.764648	17537.119141	6450.799805	31.308781
557.540161	1393.140381	17350.515625	6343.495605	31.022367
557.885620	1390.774414	17176.365234	6254.387695	30.810461
558.231018	1387.849243	17019.054688	6170.420410	30.596306
558.576355	1386.472778	16895.041016	6086.862305	30.308340
558.921692	1386.365356	16771.951172	6014.357910	30.080055
559.266968	1382.923950	16670.603516	5950.285645	29.876095
559.612183	1381.353882	16585.216797	5888.212891	29.642853
559.957336	1378.815918	16526.220703	5837.496582	29.435278
560.302429	1376.493164	16485.611328	5792.868164	29.229866
560.647522	1377.073975	16465.630859	5747.399902	28.964508
560.992554	1376.149170	16452.361328	5706.728516	28.724585
561.337524	1375.396362	16454.466797	5677.004395	28.527010
561.682434	1376.772827	16478.041016	5649.280762	28.292377
562.027344	1379.590332	16486.343750	5621.793457	28.081501
562.372253	1380.256958	16492.281250	5599.145508	27.917429
562.717102	1381.052856	16496.431641	5575.658691	27.750584
563.061829	1383.289551	16506.345703	5548.429199	27.541653
563.406494	1382.923950	16506.863281	5522.254395	27.369394
563.751160	1383.010132	16487.873047	5492.615723	27.207167
564.095825	1383.805908	16480.019531	5468.290039	27.056347
564.440369	1381.052856	16470.945313	5448.653320	26.955795
564.784973	1381.547485	16486.128906	5433.017090	26.822788
565.129456	1383.504761	16545.621094	5431.038086	26.695042
565.473877	1381.934692	16631.501953	5431.833984	26.557470
565.818298	1379.418335	16780.574219	5448.652832	26.421616
566.162659	1381.225098	16958.230469	5475.753418	26.285721
566.507019	1383.117676	17142.789063	5505.413574	26.157244
566.851196	1382.623047	17304.982422	5527.437500	26.031408
567.195435	1384.924316	17465.066406	5543.934570	25.864262
567.539612	1386.128784	17583.642578	5553.010742	25.725441
567.883789	1387.870972	17669.867188	5554.667480	25.591434
568.227844	1390.107666	17720.433594	5548.816895	25.466171
568.571960	1392.796143	17746.607422	5534.771973	25.327280
568.915955	1391.957397	17702.988281	5502.854004	25.203167
569.259888	1392.301514	17641.583984	5469.946777	25.094311
569.603821	1394.624390	17538.859375	5427.662109	24.981285
569.947632	1393.140259	17414.093750	5377.741699	24.871189
570.291504	1390.537842	17301.820313	5325.972168	24.733608
570.635193	1388.817261	17230.070313	5288.870605	24.619600
570.979004	1387.720337	17189.140625	5262.803223	24.523638
571.322632	1388.387207	17251.921875	5263.835449	24.429916
571.666321	1386.881348	17348.537109	5272.546387	24.343746
572.009949	1388.752686	17484.488281	5287.472656	24.222069
572.353455	1388.688110	17614.806641	5306.765137	24.146730
572.696960	1392.903809	17731.423828	5321.067871	24.042351
573.040405	1395.269653	17836.578125	5332.854492	23.949341
573.383850	1396.302246	17900.994141	5335.542969	23.867399
573.727173	1397.678589	17957.580078	5336.016113	23.782372
574.070557	1398.667969	17983.669922	5331.434570	23.712790
574.413879	1400.474731	18000.898438	5329.348633	23.667311
574.757019	1398.560425	18007.070313	5324.100586	23.635715
575.100281	1398.409912	17948.935547	5299.731934	23.572195
575.443420	1397.850586	17855.351563	5264.781250	23.496464
575.786499	1394.968628	17718.580078	5221.441895	23.441339
576.129517	1395.011597	17557.830078	5175.350586	23.389107
576.472534	1395.269653	17409.726563	5128.957520	23.314484
576.815491	1393.376953	17219.445313	5074.477539	23.259729
577.158447	1392.839355	17037.873047	5020.104980	23.184774
577.501343	1389.634644	16846.281250	4968.163574	23.152039
577.844116	1385.655518	16634.621094	4913.253906	23.133362
578.187012	1383.182129	16399.818359	4849.826172	23.085356
578.529724	1380.321533	16122.384766	4777.968262	23.047295
578.872375	1377.310425	15831.832031	4701.033691	22.994349
579.215027	1374.062622	15551.066406	4625.927734	22.937605
579.557617	1371.159058	15267.546875	4557.124023	22.926569
579.900146	1368.104980	15013.774414	4487.330078	22.858717
580.242676	1364.362549	14763.677734	4422.957031	22.826498
580.585144	1363.910889	14546.577148	4370.820801	22.809574
580.927612	1360.620117	14349.434570	4322.879395	22.806232
581.269958	1358.254272	14169.499023	4276.529785	22.779015
581.612305	1359.136108	14031.352539	4232.331055	22.673182
581.954590	1358.017700	13892.000977	4192.454590	22.614016
582.296814	1359.329712	13789.235352	4157.827148	22.514231
582.639038	1358.168335	13691.159180	4129.500977	22.470886
582.981140	1360.641724	13596.156250	4106.100586	22.438442
583.323242	1364.212036	13520.319336	4081.860840	22.356243
583.665283	1361.824707	13440.610352	4061.277344	22.348709
584.007324	1359.243652	13378.174805	4046.566162	22.359079
584.349304	1357.071411	13312.359375	4025.660156	22.321409
584.691284	1355.264771	13251.771484	4005.915527	22.280918
585.033142	1354.447388	13186.343750	3985.268066	22.234989
585.374939	1354.253906	13123.582031	3971.395264	22.236965
585.716736	1352.533203	13080.458984	3955.113525	22.191309
586.058411	1353.329102	13023.613281	3942.768066	22.188311
586.400085	1354.124878	12978.125000	3931.390381	22.171934
586.741760	1351.285889	12935.324219	3918.700684	22.163383
587.083374	1348.253174	12922.503906	3916.593018	22.190117
587.424988	1348.167114	12903.749023	3906.376709	22.138300
587.766541	1346.360352	12895.706055	3894.955566	22.067009
588.107971	1346.166748	12910.008789	3890.460693	22.002151
588.449341	1346.747559	12925.581055	3890.869385	21.972176
588.790710	1346.941162	12962.487305	3895.557861	21.941429
589.132080	1345.693604	12993.931641	3899.945557	21.928225
589.473267	1348.984375	13041.616211	3907.795898	21.883966
589.814514	1347.392700	13090.913086	3910.871826	21.828880
590.155762	1346.424927	13151.329102	3922.378662	21.821047
590.496948	1348.704834	13191.547852	3927.475830	21.774933
590.838013	1348.102661	13204.711914	3923.088379	21.717726
591.179077	1349.005981	13229.359375	3927.970947	21.707813
591.520081	1350.704956	13229.360352	3927.992188	21.696793
591.861023	1352.339600	13208.475586	3920.679443	21.662537
592.201965	1351.930908	13188.343750	3911.710693	21.626314
592.542847	1353.264526	13146.706055	3898.268066	21.579821
592.883606	1353.716187	13099.450195	3881.878906	21.524092
593.224365	1352.468628	13047.250000	3870.995850	21.535480
593.565125	1352.511597	13016.602539	3865.963135	21.548630
593.905823	1353.823730	12999.008789	3855.251709	21.480362
594.246521	1353.350464	12995.803711	3849.702881	21.441809
594.587097	1354.942139	13030.777344	3853.552490	21.399843
594.927612	1354.017334	13055.768555	3852.756836	21.353552
595.268127	1354.985229	13121.110352	3864.350098	21.327028
595.608582	1350.597534	13227.984375	3884.073242	21.330244
595.948975	1350.877075	13347.805664	3910.958008	21.339470
596.289307	1352.597656	13530.000000	3948.553711	21.317814
596.629700	1353.845093	13753.403320	3998.129150	21.325632
596.969971	1355.157104	13974.957031	4042.328369	21.293297
597.310242	1355.028198	14161.775391	4079.172119	21.271164
597.650391	1355.286255	14280.758789	4107.304688	21.291435
597.990540	1353.350464	14364.662109	4123.500488	21.290319
598.330627	1354.425903	14370.918945	4125.565430	21.289450
598.670654	1356.727295	14358.681641	4121.112793	21.261309
599.010620	1355.845459	14279.640625	4099.347168	21.228298
599.350525	1358.834961	14147.237305	4070.224121	21.201939
599.690491	1358.985474	13981.238281	4027.573975	21.141933
600.030334	1356.426147	13756.113281	3975.288330	21.120390
600.370178	1354.576416	13481.950195	3913.345215	21.099117
600.710022	1352.210449	13190.322266	3848.455322	21.086514
601.049683	1351.221191	12926.418945	3786.469482	21.038504
601.389343	1349.005859	12712.930664	3730.548584	20.957045
601.728943	1349.220947	12547.619141	3690.521973	20.907463
602.068542	1346.145386	12447.219727	3666.303955	20.900309
602.408081	1343.714966	12407.515625	3654.883545	20.889462
602.747498	1347.392822	12457.952148	3662.389160	20.836000
603.087036	1349.758667	12558.715820	3682.520996	20.811590
603.426453	1349.027344	12710.046875	3714.567871	20.821552
603.765869	1350.661987	12902.652344	3750.034424	20.770210
604.105103	1350.833984	13132.744141	3793.910400	20.735826
604.444336	1352.103027	13408.628906	3850.498291	20.722349
604.783569	1354.791504	13683.350586	3908.806885	20.716253
605.122681	1358.039185	13923.790039	3959.393555	20.701942
605.461792	1360.362183	14122.050781	3999.829102	20.682739
605.800842	1361.910645	14273.315430	4027.939941	20.648640
606.139954	1362.641846	14346.141602	4042.758789	20.642485
606.478943	1359.931763	14330.636719	4041.855469	20.676777
606.817932	1356.813232	14249.227539	4022.003906	20.672550
607.156799	1358.340332	14120.008789	3993.720947	20.650753
607.495605	1357.071411	13942.028320	3956.619385	20.655993
607.834412	1356.512207	13730.906250	3908.979004	20.627003
608.173157	1356.963867	13487.928711	3856.821777	20.607246
608.511841	1357.523193	13275.150391	3807.568604	20.558165
608.850464	1356.813354	13123.109375	3769.349121	20.503782
609.189148	1357.222046	13038.905273	3751.088379	20.492476
609.527710	1357.178955	12987.802734	3738.742920	20.476665
609.866211	1356.619629	12966.853516	3730.548340	20.446863
610.204712	1356.576660	12970.832031	3726.181885	20.402557
610.543091	1358.921021	12985.652344	3724.913086	20.349590
610.881409	1359.200684	12981.887695	3722.288818	20.331684
611.219788	1358.555542	12962.636719	3714.524170	20.302933
611.558044	1359.222290	12924.590820	3706.932129	20.299482
611.896301	1357.071411	12848.300781	3687.273682	20.278093
612.234436	1355.092651	12720.778320	3659.507568	20.275196
612.572693	1350.468384	12538.434570	3626.385010	20.342541
612.910767	1346.295776	12311.265625	3577.518799	20.348648
613.248840	1345.951660	12067.795898	3524.135742	20.315388
613.586792	1344.962402	11823.615234	3475.613525	20.333256
613.924805	1343.112671	11590.983398	3426.855225	20.333420
614.262695	1339.284180	11367.793945	3378.633789	20.335520
614.600525	1335.563354	11181.536133	3335.208740	20.309273
614.938293	1333.627441	11017.816406	3303.011475	20.336075
615.276123	1329.906738	10869.152344	3270.728027	20.345646
615.613892	1329.584106	10751.783203	3245.327148	20.332228
615.951538	1328.035522	10640.694336	3224.937256	20.369066
616.289185	1328.014038	10566.943359	3208.333008	20.352129
616.626770	1327.411743	10496.353516	3190.115479	20.315363
616.964294	1326.013672	10445.938477	3179.813232	20.326918
617.301819	1323.604736	10407.267578	3169.467773	20.320690
617.639221	1323.153076	10378.189453	3162.069336	20.308216
617.976624	1321.325073	10362.853516	3162.004639	20.358057
618.313965	1324.164185	10346.486328	3160.477539	20.353001
618.651306	1327.497803	10337.819336	3158.477295	20.320911
618.988525	1329.605591	10326.570313	3155.810303	20.298008
619.325684	1329.433472	10320.224609	3151.680664	20.267929
619.662964	1331.111206	10312.611328	3151.616211	20.269499
620.000000	1331.605957	10289.296875	3148.196777	20.279676
620.337097	1329.842285	10270.563477	3144.217773	20.293392
620.674133	1327.670044	10244.667969	3137.119629	20.292139
621.011047	1330.035889	10211.373047	3129.441406	20.260525
621.347961	1329.648682	10182.379883	3124.537598	20.274973
621.684875	1331.390747	10146.871094	3116.557861	20.250366
622.021729	1329.863770	10114.371094	3109.976807	20.264233
622.358521	1329.132324	10068.881836	3102.857666	20.294920
622.695313	1327.325684	10045.352539	3096.835693	20.297138
623.031982	1326.551514	10015.541992	3089.845215	20.293425
623.368652	1324.529785	9991.561523	3084.295898	20.304140
623.705261	1323.712402	9977.149414	3080.704102	20.303974
624.041748	1326.443970	9965.019531	3077.327393	20.268196
624.378296	1330.057373	9964.589844	3078.015625	20.243809
624.714722	1329.777710	9987.903320	3077.004639	20.180197
625.051147	1331.756470	10010.014648	3080.854736	20.154947
625.387512	1333.520142	10059.138672	3085.866211	20.082773
625.723877	1334.358887	10114.349609	3098.921875	20.097551
626.060120	1332.380249	10206.467773	3114.557861	20.082939
626.396301	1335.004150	10316.202148	3135.011963	20.041956
626.732483	1338.079956	10427.527344	3164.198975	20.090540
627.068604	1340.488770	10542.659180	3184.308594	20.036795
627.404724	1345.156006	10649.726563	3204.698242	19.985256
627.740662	1346.575562	10744.706055	3222.915527	19.965033
628.076721	1345.392578	10811.510742	3232.852295	19.939110
628.412720	1344.360107	10847.579102	3245.714111	20.007473
628.748596	1344.058960	10864.636719	3251.392090	20.033794
629.084473	1344.790161	10857.860352	3249.735840	20.024509
629.420227	1344.058960	10822.523438	3238.121338	19.982798
629.755981	1344.381592	10759.699219	3222.807861	19.950748
630.091675	1345.285034	10655.600586	3202.826660	19.951435
630.427307	1343.714966	10541.219727	3175.188965	19.912727
630.762939	1340.768311	10419.979492	3150.734375	19.935280
631.098450	1338.208862	10297.727539	3120.085205	19.888081
631.434021	1338.208862	10185.499023	3098.233398	19.893375
631.769470	1335.197754	10085.313477	3078.875977	19.927488
632.104980	1333.240479	9990.163086	3059.691162	19.943007
632.440308	1331.627441	9907.851563	3041.559570	19.938051
632.775635	1330.315430	9827.433594	3028.224854	19.982180
633.110901	1330.401489	9767.102539	3019.987305	20.026617
633.446106	1330.788574	9724.925781	3011.749756	20.025421
633.781250	1328.100098	9693.135742	3002.544434	20.017181
634.116394	1329.304565	9672.036133	2997.640381	19.997477
634.451538	1330.186401	9660.164063	2990.736084	19.934624
634.786560	1329.261597	9636.849609	2988.843506	19.976700
635.121582	1326.723511	9609.641602	2982.950195	19.995691
635.456543	1329.820679	9574.928711	2975.959961	19.965040
635.791443	1334.122437	9539.719727	2964.431885	19.868259
636.126221	1333.455688	9498.402344	2951.075195	19.811758
636.461060	1330.294067	9459.751953	2940.772949	19.810410
636.795776	1328.336792	9411.875000	2925.330322	19.756121
637.130493	1327.261353	9340.318359	2911.500244	19.770718
637.465210	1329.089478	9269.083984	2897.670898	19.755447
637.799805	1327.562378	9190.750977	2879.518066	19.736977
638.134399	1325.196655	9101.235352	2867.968506	19.840075
638.468933	1324.400757	9013.999023	2853.687012	19.887726
638.803345	1324.099731	8930.870117	2837.039795	19.889387
639.137756	1322.357422	8856.818359	2822.306885	19.907854
639.472168	1320.937988	8790.487305	2812.778564	19.972298
639.806519	1319.582886	8721.060547	2803.444336	20.048180
640.140747	1319.797974	8648.619141	2789.851318	20.058523
640.474976	1320.142090	8578.417969	2778.860352	20.097311
640.809204	1321.066895	8510.150391	2761.245605	20.032856
641.143372	1321.023926	8444.959961	2748.986084	20.044567
641.477478	1320.658325	8379.188477	2737.952393	20.079166
641.811462	1321.798340	8318.385742	2720.035889	19.984566
642.145447	1322.206909	8273.305664	2707.238525	19.925364
642.479370	1321.647583	8229.859375	2699.840088	19.950062
642.813293	1321.346558	8179.572266	2692.053955	19.986326
643.147095	1318.873169	8133.115234	2680.826660	19.986866
643.480957	1319.862427	8095.455078	2669.190918	19.914545
643.814758	1322.593872	8059.644043	2661.211426	19.869490
644.148438	1322.809082	8031.532715	2654.845215	19.855284
644.482117	1322.593872	8010.153320	2654.350586	19.913942
644.815735	1320.400146	7981.741699	2644.650146	19.879629
645.149292	1319.002075	7963.890625	2642.585693	19.918823
645.482788	1318.636475	7946.726563	2642.843750	19.978716
645.816223	1318.098755	7929.542480	2638.348389	19.969158
646.149658	1321.884277	7921.261230	2635.789063	19.909527
646.483032	1322.830566	7925.670410	2635.595459	19.881823
646.816345	1325.002930	7925.347168	2636.885742	19.875977
647.149658	1325.712769	7925.153320	2641.445557	19.937037
647.482849	1323.067261	7931.089355	2642.650146	19.969408
647.816101	1323.690918	7933.498535	2644.499512	19.982557
648.149231	1325.583618	7934.251465	2644.155273	19.952154
648.482239	1325.562134	7940.402832	2649.231445	20.010599
648.815247	1325.282715	7940.918457	2647.575195	19.987383
649.148254	1326.250366	7943.090820	2644.779053	19.926863
649.481201	1326.723511	7939.155762	2645.037354	19.936897
649.814087	1323.475830	7926.875000	2641.079834	19.953421
650.146973	1323.949097	7914.399902	2639.273193	19.958029
650.479736	1322.873657	7914.377930	2640.047607	19.982903
650.812500	1323.820068	7909.216797	2638.520508	19.963877
651.145203	1324.185547	7898.226074	2638.047363	19.985605
651.477844	1325.045898	7892.375488	2640.972412	20.037468
651.810486	1322.529419	7888.052734	2640.563965	20.075087
652.143005	1322.421875	7879.083984	2638.692383	20.075314
652.475525	1322.830566	7875.061035	2636.133057	20.043594
652.807922	1321.389526	7863.532715	2639.875488	20.153732
653.140381	1321.131348	7854.090820	2639.208740	20.175808
653.472717	1322.206787	7835.443359	2642.886719	20.276861
653.805115	1322.744507	7811.312012	2640.327148	20.306217
654.137390	1323.303833	7778.468750	2634.799316	20.316994
654.469543	1322.292847	7743.497070	2629.809570	20.362486
654.801758	1323.992065	7706.976563	2626.196289	20.401182
655.133850	1322.938110	7666.024902	2615.678955	20.380312
655.465881	1323.798340	7628.988770	2610.065430	20.400131
655.797974	1326.874023	7598.726563	2606.817627	20.407743
656.129944	1328.723755	7561.474609	2602.429932	20.435698
656.461853	1331.111206	7537.429199	2597.848633	20.410450
656.793762	1330.465942	7519.620605	2596.536621	20.456278
657.125610	1329.476685	7518.437500	2593.138428	20.417995
657.457397	1330.100342	7528.761230	2594.665527	20.400618
657.789124	1327.884888	7549.730957	2600.150146	20.448357
658.120789	1325.863281	7595.220703	2612.581787	20.523930
658.452393	1325.712646	7671.316895	2628.540771	20.531191
658.783997	1325.906250	7765.521484	2647.962646	20.530052
659.115540	1325.024292	7877.062500	2672.051758	20.558908
659.447083	1322.099243	7988.430176	2697.732178	20.635532
659.778503	1323.475952	8102.724609	2725.456055	20.680464
660.109924	1322.895264	8201.403320	2743.543945	20.653442
660.441284	1327.067749	8284.660156	2761.976318	20.623636
660.772522	1329.347656	8343.678711	2774.773682	20.606754
661.103760	1328.401245	8376.391602	2783.205078	20.641399
661.434998	1329.067993	8385.361328	2786.968994	20.661003
661.766113	1332.659912	8352.733398	2777.354736	20.579483
662.097229	1332.573730	8281.864258	2762.514160	20.576782
662.428345	1334.746094	8188.197266	2744.813232	20.574556
662.759277	1336.638794	8055.599609	2717.949707	20.558401
663.090332	1339.757446	7920.400391	2691.559570	20.542097
663.421204	1336.617310	7777.931641	2658.114258	20.515951
663.752075	1336.230225	7635.720215	2633.465820	20.592707
664.082886	1333.584595	7499.488770	2605.183350	20.623070
664.413635	1332.401733	7379.345215	2580.276611	20.636457
664.744324	1331.347778	7271.783203	2557.714600	20.644392
665.075012	1333.627686	7177.986328	2536.959717	20.589634
665.405640	1333.477051	7108.106445	2523.215820	20.602859
665.736206	1333.971802	7047.948730	2514.892334	20.667225
666.066772	1332.638184	6992.845215	2504.718994	20.707384
666.397278	1331.175659	6956.948242	2498.696777	20.753080
666.727661	1328.895752	6917.653320	2490.738525	20.788927
667.058044	1331.648804	6889.562988	2487.404785	20.794779
667.388306	1331.068237	6871.109375	2481.339600	20.762867
667.718567	1330.874756	6853.817383	2478.930664	20.787033
668.048828	1331.842651	6843.343262	2480.931152	20.848923
668.378967	1334.186890	6841.342285	2482.522705	20.851706
668.709167	1333.907227	6841.601074	2480.586914	20.819597
669.039246	1334.165283	6841.170410	2482.651855	20.855013
669.369263	1335.434326	6843.127930	2481.081787	20.800858
669.699341	1336.638794	6839.643555	2479.683594	20.771284
670.029236	1335.993530	6832.223145	2475.704590	20.736235
670.359131	1335.735474	6828.630859	2474.779785	20.736683
670.688965	1335.993530	6818.565430	2474.263428	20.761604
671.018738	1338.402466	6799.423340	2471.209229	20.743498
671.348511	1339.563965	6785.142578	2468.650146	20.733999
671.678223	1340.617676	6766.085449	2461.767334	20.664572
672.007813	1339.284302	6734.426270	2453.938477	20.660330
672.337341	1339.714478	6704.465332	2448.260254	20.663509
672.666992	1340.596313	6671.987793	2438.818359	20.599163
672.996460	1339.822144	6636.758301	2430.688477	20.594290
673.325867	1340.768555	6604.001465	2423.805664	20.577412
673.655273	1343.693604	6570.578125	2417.912354	20.551798
673.984619	1346.166992	6531.841797	2411.653564	20.546730
674.314026	1346.769165	6501.708984	2402.813965	20.486074
674.643250	1347.457397	6475.360840	2398.039063	20.487549
674.972412	1348.102539	6445.852051	2390.145508	20.441235
675.301514	1346.123901	6418.300293	2383.585693	20.453978
675.630676	1348.425171	6399.007813	2377.240723	20.370235
675.959778	1348.726196	6375.133301	2374.552490	20.408739
676.288757	1346.769043	6355.583008	2371.584229	20.460238
676.617737	1347.994995	6330.139160	2364.809082	20.409166
676.946594	1345.564575	6317.104980	2362.120850	20.447510
677.275513	1346.769043	6303.340820	2359.174072	20.425508
677.604309	1348.296143	6301.619141	2355.818848	20.340338
677.933044	1348.339111	6297.081055	2354.377686	20.329178
678.261780	1347.371216	6302.092285	2353.538818	20.307249
678.590393	1346.725952	6318.115723	2357.689941	20.335642
678.919067	1347.736816	6339.990234	2364.292725	20.362667
679.247620	1350.597290	6369.906738	2372.573486	20.360891
679.576111	1354.576294	6414.687012	2379.563721	20.256226
679.904541	1357.888672	6464.951660	2387.564697	20.161804
680.232971	1360.211548	6527.389160	2401.458984	20.151182
680.561401	1367.094238	6579.482422	2411.868896	20.044069
680.889709	1368.986816	6631.660645	2424.580078	20.058117
681.217957	1370.320313	6676.612793	2436.215820	20.087387
681.546143	1373.030396	6715.370117	2444.840576	20.062561
681.874390	1376.299683	6754.256348	2450.432617	19.972883
682.202454	1380.837769	6781.851074	2457.509033	19.934616
682.530579	1384.322144	6789.357422	2458.949951	19.881977
682.858521	1385.376099	6781.614258	2455.981934	19.839855
683.186523	1385.913696	6746.879395	2449.034668	19.830772
683.514465	1386.193237	6701.539551	2440.926025	19.843163
683.842346	1388.881836	6645.490234	2425.418701	19.718739
684.170166	1386.279297	6579.826172	2412.385010	19.757320
684.497925	1386.472778	6514.226563	2394.275391	19.653881
684.825623	1385.655396	6446.218262	2376.294678	19.575674
685.153320	1384.773682	6370.703125	2361.625977	19.592180
685.481018	1383.354126	6294.414551	2346.247803	19.606634
685.808533	1384.106934	6218.426270	2327.729492	19.519243
686.136047	1385.784668	6154.891113	2311.211182	19.404610
686.463623	1386.774048	6099.916992	2299.166504	19.358471
686.791016	1387.526855	6063.267090	2291.057861	19.323807
687.118408	1389.634644	6037.909180	2286.605957	19.296867
687.445740	1388.042969	6019.132813	2284.648682	19.360577
687.772949	1389.613159	6015.045410	2281.444092	19.281029
688.100220	1391.161621	6012.099609	2282.777588	19.295130
688.427429	1396.474121	6003.087402	2280.304199	19.186113
688.754517	1399.270264	6008.249512	2277.658447	19.058193
689.081604	1402.259888	5999.280762	2275.937744	19.005304
689.408630	1401.657593	5991.171875	2273.356934	18.993282
689.735657	1402.023193	5971.492188	2271.120117	19.019650
690.062622	1401.377930	5948.737305	2266.087158	19.015635
690.389465	1403.141602	5917.722168	2256.215088	18.895964
690.716248	1404.238647	5876.018555	2244.880371	18.798817
691.043091	1406.045288	5826.141113	2235.201904	18.758793
691.369812	1407.744385	5769.511230	2222.899170	18.688639
691.696533	1407.658325	5708.041016	2208.036865	18.611797
692.023132	1403.399658	5655.582520	2198.960693	18.709475
692.349670	1401.700439	5592.693359	2188.206543	18.766581
692.676270	1403.227661	5541.073730	2176.957764	18.698860
693.002747	1403.378052	5492.959961	2167.666504	18.688669
693.329163	1403.313599	5450.717773	2157.794189	18.641098
693.655518	1405.593506	5407.400879	2149.212646	18.582083
693.981873	1404.389038	5364.772461	2142.093506	18.627098
694.308167	1406.260254	5326.423828	2136.931396	18.638792
694.634399	1406.195801	5301.151367	2126.801025	18.500986
694.960571	1406.604492	5276.309570	2119.187256	18.414394
695.286743	1409.400513	5256.242676	2114.455322	18.328144
695.612854	1414.239746	5242.563477	2108.777344	18.142080
695.938904	1418.713379	5237.853516	2104.691162	17.961576
696.264832	1420.197388	5241.918457	2101.851807	17.836321
696.590820	1425.208862	5250.500000	2101.077881	17.668434
696.916687	1428.047974	5274.652832	2102.819824	17.542011
697.242554	1430.822510	5313.324707	2108.368896	17.451281
697.568359	1435.919800	5373.332520	2123.876465	17.472303
697.894043	1442.802490	5455.772949	2137.211182	17.304108
698.219788	1451.663696	5556.581055	2159.859131	17.252367
698.545349	1459.578735	5674.015137	2184.270508	17.195461
698.870972	1470.827515	5799.234375	2209.349121	17.062204
699.196533	1477.903442	5917.076660	2233.395020	17.018745
699.521973	1484.678589	6021.197266	2253.956787	16.957457
699.847412	1493.948730	6108.326172	2271.636230	16.853573
700.172852	1502.121582	6172.678223	2284.605713	16.753551
700.498169	1510.208618	6207.930176	2291.359375	16.628290
700.823486	1514.832764	6215.135742	2293.617676	16.568825
701.148682	1517.456909	6188.142578	2283.121826	16.392988
701.473816	1518.682739	6122.328613	2266.990723	16.254681
701.799072	1518.897949	6019.906738	2245.396484	16.140793
702.124146	1515.607300	5893.568848	2220.318115	16.096781
702.449158	1510.832153	5747.744141	2191.497070	16.065117
702.774109	1510.466675	5599.274414	2160.375000	15.894813
703.099060	1508.014771	5460.439941	2130.328369	15.745108
703.424011	1501.906372	5323.562500	2103.529541	15.742472
703.748840	1494.937866	5198.386230	2077.483398	15.729815
704.073608	1492.292236	5088.071289	2054.448242	15.633775
704.398315	1489.216675	4990.511230	2032.918823	15.528604
704.723022	1488.506958	4912.694824	2014.163330	15.351271
705.047668	1487.194946	4849.225098	2001.603027	15.300519
705.372253	1486.958496	4791.949219	1987.192261	15.135709
705.696716	1489.560913	4742.028809	1975.922241	14.953609
706.021240	1486.377808	4705.701660	1967.448120	14.943211
706.345764	1486.076660	4678.321777	1960.759277	14.869867
706.670044	1489.023315	4652.834961	1957.791016	14.816549
706.994446	1493.626099	4636.037109	1952.048340	14.588232
707.318665	1498.056641	4628.853516	1947.983276	14.370995
707.642883	1500.013794	4621.927246	1946.090698	14.288573
707.967102	1503.326050	4619.539551	1944.628174	14.161486
708.291260	1507.907349	4620.271484	1945.703613	14.066357
708.615295	1511.757324	4613.496582	1944.025879	13.936328
708.939331	1514.875854	4623.369141	1947.187622	13.907438
709.263367	1517.671875	4634.337891	1946.972534	13.774356
709.587280	1525.285645	4649.156250	1948.262939	13.540167
709.911194	1529.910034	4660.512207	1949.682739	13.408689
710.234985	1534.168457	4682.300293	1951.618286	13.260240
710.558716	1538.620728	4706.905762	1959.124512	13.272284
710.882568	1546.449707	4732.435547	1965.856567	13.164116
711.206177	1551.869629	4761.234863	1973.147705	13.126523
711.529785	1558.451172	4791.948242	1981.837036	13.093745
711.853394	1566.322998	4811.542480	1987.493652	12.978187
712.176880	1571.054810	4837.051270	1990.956299	12.856765
712.500427	1575.356567	4848.170898	1993.752319	12.783974
712.823792	1581.636841	4854.945801	1997.817261	12.714364
713.147217	1587.981689	4857.269043	1998.871216	12.568168
713.470520	1594.068481	4847.482422	1997.903442	12.412652
713.793823	1596.627808	4831.975098	1996.312012	12.353673
714.117004	1599.639038	4813.134277	1988.805420	12.110377
714.440247	1599.165894	4789.754395	1980.632446	11.955994
714.763367	1603.875854	4761.858887	1973.771484	11.713035
715.086365	1608.371094	4733.424805	1963.877808	11.376019
715.409485	1608.629272	4712.583984	1957.446899	11.237845
715.732361	1610.801636	4689.419922	1953.446411	11.129824
716.055298	1614.780762	4668.600098	1947.036743	10.880014
716.378174	1617.232544	4652.146484	1940.821045	10.662196
716.700928	1617.490723	4631.476563	1935.573120	10.553547
717.023804	1617.533691	4612.958496	1929.357422	10.410000
717.346558	1623.104248	4589.815918	1920.108887	10.011240
717.669189	1625.040161	4560.134766	1914.753418	9.870661
717.991760	1629.470703	4523.679199	1909.268799	9.667517
718.314392	1629.169556	4482.189453	1901.353882	9.540218
718.636902	1627.621094	4440.808105	1892.083984	9.400828
718.959351	1629.341797	4385.704590	1883.523560	9.221637
719.281738	1630.244995	4331.891113	1871.565186	8.932340
719.604065	1629.642700	4277.132324	1860.811279	8.731614
719.926453	1629.685913	4219.189453	1849.175415	8.476123
720.248718	1630.782715	4167.097168	1838.442871	8.187477
720.570923	1631.535522	4116.423828	1830.635498	8.012432
720.893066	1628.094116	4070.225098	1824.183105	8.029422
721.215088	1627.599487	4024.885742	1814.031250	7.776784
721.537170	1624.631348	3983.074463	1805.492310	7.668659
721.859192	1624.695801	3953.220947	1800.287476	7.540896
722.181152	1625.448730	3915.560303	1797.555908	7.515231
722.503052	1625.964844	3889.772461	1791.705933	7.321342
722.824951	1626.739136	3870.092285	1788.608643	7.215517
723.146790	1625.857300	3852.434326	1786.350464	7.208066
723.468506	1624.373169	3838.518799	1784.694092	7.240758
723.790161	1624.953979	3823.914795	1780.457153	7.071666
724.111816	1626.889771	3815.247070	1777.058960	6.862187
724.433472	1631.427856	3805.503906	1775.596436	6.631257
724.755005	1636.890991	3800.771973	1777.424561	6.494515
725.076477	1641.708862	3796.147705	1780.586060	6.446095
725.397888	1646.956665	3793.975586	1777.187866	6.065675
725.719299	1652.613281	3796.771240	1777.639526	5.831018
726.040710	1656.097656	3798.341553	1777.811768	5.681618
726.361938	1660.291748	3797.567383	1780.048706	5.603253
726.683167	1668.808716	3805.762451	1781.984375	5.296122
727.004395	1676.659058	3811.676758	1783.317871	4.995688
727.325500	1686.273438	3822.968750	1788.092651	4.765266
727.646667	1695.306763	3836.905273	1791.878052	4.509308
727.967651	1702.640991	3852.821289	1796.222534	4.352265
728.288635	1711.201172	3870.888184	1800.416748	4.130949
728.609558	1721.976685	3887.062500	1801.276855	3.662680
728.930481	1729.267944	3898.289307	1808.417603	3.649095
729.251282	1736.430054	3910.721191	1809.191895	3.346463
729.572021	1742.646118	3921.582764	1811.321167	3.151769
729.892761	1749.743774	3928.292969	1811.751465	2.846283
730.213440	1756.110107	3928.594482	1812.676147	2.603749
730.534119	1766.390747	3936.121826	1814.396851	2.212537
730.854675	1771.036743	3941.284180	1818.870605	2.204074
731.175171	1775.725342	3945.972412	1819.924561	2.036598
731.495605	1783.597290	3952.231445	1824.828247	1.901241
731.816101	1788.436646	3954.468506	1825.129395	1.694008
732.136475	1790.307739	3957.630371	1825.710205	1.633465
732.456787	1797.340942	3961.308350	1825.280029	1.291105
732.777039	1803.900879	3962.813477	1826.634888	1.053030
733.097229	1807.621826	3969.911133	1828.505981	0.965835
733.417480	1813.644165	3973.847412	1828.721191	0.697945
733.737549	1815.558472	3973.825684	1832.377441	0.779281
734.057617	1816.268066	3964.921631	1831.646362	0.715718
734.377563	1818.461670	3945.822021	1826.634888	0.384195
734.697510	1819.666138	3920.313477	1822.677368	0.143348
735.017517	1818.268433	3893.535889	1813.880737	-0.211428
735.337341	1818.719971	3861.488525	1809.213379	-0.465378
735.657166	1820.462158	3826.151367	1801.793091	-0.930806
735.976868	1816.547607	3791.652344	1794.222290	-1.130336
736.296631	1813.084839	3753.604736	1788.565674	-1.263536
736.616272	1813.213745	3716.202393	1782.177734	-1.630909
736.935852	1811.278076	3682.929443	1780.887207	-1.623746
737.255371	1811.815918	3650.839600	1772.520630	-2.136747
737.574829	1811.643799	3622.341553	1767.681274	-2.427933
737.894348	1811.407349	3606.791260	1767.616821	-2.439062
738.213745	1814.203247	3598.833496	1766.605957	-2.667067
738.533081	1817.063965	3588.465820	1769.359009	-2.693062
738.852356	1821.601929	3593.047119	1769.896851	-2.918808
739.171570	1827.516724	3600.704102	1774.521118	-2.988720
739.490784	1835.560669	3604.403320	1778.155762	-3.245337
739.809937	1843.583130	3611.028320	1779.145020	-3.645833
740.129028	1851.089478	3604.791260	1778.134277	-4.160069
740.447998	1855.305176	3598.725830	1777.381348	-4.469594
740.767029	1858.983154	3595.972656	1777.295410	-4.702835
741.085999	1862.682373	3588.423340	1776.048096	-5.020121
741.404846	1864.101929	3573.109375	1772.219604	-5.376356
741.723633	1863.327637	3551.988525	1770.133301	-5.518831
742.042358	1861.714478	3528.221924	1764.605591	-5.827090
742.361145	1858.617310	3494.196289	1759.228638	-6.076666
742.679810	1856.509644	3461.418213	1753.464478	-6.420625
742.998413	1852.638184	3425.457031	1751.012451	-6.461376
743.316956	1846.250122	3390.420410	1747.313232	-6.407123
743.635498	1841.324951	3362.674805	1746.753906	-6.216259
743.953979	1838.141724	3338.628906	1742.129761	-6.398719
744.272400	1836.464111	3308.108643	1740.753418	-6.503656
744.590698	1833.302368	3283.417725	1742.108276	-6.288747
744.909058	1829.388184	3260.339600	1740.021973	-6.245230
745.227356	1827.409424	3239.820557	1741.742554	-6.065293
745.545471	1826.742554	3222.097900	1742.086792	-6.066968
745.863586	1825.409058	3203.257080	1741.097534	-6.119073
746.181702	1820.806519	3183.792236	1741.420044	-5.824454
746.499756	1820.118042	3175.942139	1737.699219	-6.078873
746.817810	1822.569946	3166.972900	1740.172729	-6.128908
747.135742	1823.430420	3161.961670	1738.774658	-6.324526
747.453613	1824.548828	3153.874756	1743.355591	-6.107850
747.771423	1827.086670	3149.702148	1746.453003	-6.096531
748.089233	1829.581543	3145.250000	1748.947754	-6.128732
748.406982	1837.389038	3144.432617	1753.249512	-6.437393
748.724609	1841.045410	3145.271240	1757.594116	-6.398531
749.042236	1846.572754	3143.980713	1765.573486	-6.243161
749.359863	1850.121826	3147.078125	1775.209106	-5.776041
749.677429	1858.208862	3152.046631	1785.468750	-5.622043
749.994873	1863.779297	3154.154541	1792.673706	-5.510458
750.312256	1868.812134	3155.143555	1797.556152	-5.539473
750.629639	1872.103027	3156.003906	1808.632813	-4.943545
750.946960	1880.189941	3156.842773	1813.514893	-5.222645
751.264282	1882.168823	3154.025146	1819.365234	-4.937947
751.581482	1887.266113	3152.132568	1826.742554	-4.784976
751.898621	1888.406128	3150.110840	1835.001587	-4.232729
752.215698	1892.427856	3147.938477	1839.539795	-4.212474
752.532715	1894.256348	3147.615723	1846.164063	-3.837071
752.849792	1898.020264	3148.476318	1853.541382	-3.557013
753.166748	1901.031372	3146.454590	1860.251953	-3.274342
753.483643	1904.773804	3142.066650	1872.317993	-2.623131
753.800476	1906.128906	3139.851563	1882.985962	-1.875863
754.117310	1911.591797	3139.421143	1892.965576	-1.517004
754.434082	1912.387451	3135.506836	1905.010132	-0.603156
754.750732	1916.517090	3139.636475	1917.828857	0.107248
755.067383	1920.689575	3141.378662	1930.669189	0.817539
755.383911	1923.765259	3137.077148	1941.251465	1.441196
755.700562	1925.507324	3139.120117	1955.597290	2.479371
756.016968	1927.314087	3137.313477	1963.232422	2.968459
756.333435	1931.400757	3130.818115	1976.115723	3.728057
756.649780	1933.981934	3129.010986	1986.396606	4.386058
756.966064	1936.562866	3129.484619	1998.806763	5.217769
757.282410	1940.885620	3129.742432	2014.056152	6.154697
757.598633	1945.940186	3132.732178	2027.563232	6.877620
757.914795	1951.403076	3138.883545	2044.081543	7.804631
758.230896	1957.575806	3146.303955	2059.309082	8.558162
758.546936	1962.092651	3158.283691	2073.955811	9.351613
758.862976	1970.932495	3168.198975	2090.689209	10.002511
759.178894	1979.664795	3177.253662	2106.884521	10.622989
759.494812	1988.332764	3188.308838	2129.081055	11.729259
759.810669	1994.247314	3199.622070	2147.319824	12.699163
760.126526	2002.269653	3208.569580	2170.075439	13.910785
760.442261	2008.829590	3214.806885	2187.561523	14.820506
760.757935	2013.389160	3224.119629	2205.434570	15.861946
761.073608	2015.905762	3225.711670	2223.049805	17.122089
761.389160	2018.207031	3227.905518	2238.298828	18.193939
761.704712	2024.917603	3230.164063	2255.978271	19.171238
762.020203	2029.025513	3229.217285	2276.518555	20.621124
762.335571	2033.348755	3242.917969	2299.360107	21.992239
762.650940	2045.221191	3264.253906	2336.396729	23.885786
762.966370	2069.826416	3312.926514	2386.596680	25.482281
763.281677	2110.368896	3394.571045	2458.992432	27.147091
763.596863	2154.266602	3499.401367	2542.572998	28.867472
763.911987	2199.627197	3606.425537	2626.002930	30.308233
764.227112	2239.911865	3690.006104	2693.731689	31.295885
764.542236	2273.378174	3756.508545	2751.265625	32.221539
764.857178	2297.596436	3808.837646	2797.271484	33.063885
765.172119	2311.985352	3837.636719	2833.555420	34.186714
765.487061	2324.567383	3858.413330	2863.602051	35.142685
765.801880	2333.579590	3864.199219	2883.346436	35.917927
766.116760	2329.127197	3845.895996	2884.658447	36.625969
766.431458	2312.781006	3798.449463	2863.946289	37.098808
766.746155	2276.217529	3709.492188	2819.360107	37.895218
767.060791	2232.878906	3593.026367	2758.019287	38.609077
767.375427	2185.518066	3471.462402	2695.387939	39.649452
767.689941	2143.964600	3367.729004	2643.144775	40.790546
768.004395	2109.250732	3278.169434	2599.354492	41.927959
768.318848	2084.258301	3200.246094	2566.103027	43.176521
768.633179	2062.449219	3138.819336	2537.239014	44.110271
768.947632	2041.629395	3083.199219	2509.794678	44.948048
769.261841	2020.831177	3027.923584	2487.920898	46.380028
769.576111	2006.678955	2983.724365	2467.854004	47.200985
769.890259	1989.106689	2941.031250	2453.271729	48.760696
770.204285	1975.750122	2907.843994	2436.839600	49.468136
770.518433	1961.920410	2873.883057	2423.268066	50.588436
770.832458	1952.607422	2845.836670	2412.750488	51.514553
771.146362	1943.423706	2820.134521	2403.953857	52.529312
771.460205	1933.056763	2796.303711	2396.103271	53.640099
771.774109	1919.915283	2772.106934	2385.456787	54.628735
772.087952	1911.527344	2752.814209	2380.746582	55.773987
772.401672	1906.257813	2728.961670	2376.337646	57.138401
772.715332	1899.999146	2712.916748	2372.250977	58.093445
773.028992	1892.600342	2696.527588	2368.637695	59.213985
773.342590	1889.029785	2679.643555	2363.303711	59.988068
773.656128	1883.308716	2663.641846	2359.131104	60.976830
773.969604	1882.491455	2651.618896	2355.302490	61.473694
774.283020	1878.211426	2633.035889	2353.302490	62.940601
774.596375	1872.275024	2618.776123	2349.172852	63.884411
774.909729	1869.930542	2604.322510	2345.086182	64.700546
775.223022	1867.220581	2592.988037	2343.903320	65.679817
775.536194	1863.198730	2577.394775	2341.580322	66.981834
775.849304	1855.670776	2568.318359	2337.967041	67.676689
776.162476	1850.422729	2556.790039	2336.396973	68.799088
776.475525	1848.530029	2546.122070	2333.450195	69.513435
776.788513	1845.002808	2538.701660	2333.127930	70.365562
777.101440	1843.153198	2527.668213	2333.880615	71.689796
777.414307	1839.561279	2518.742432	2335.988525	73.092026
777.727173	1836.227661	2514.161133	2332.761963	73.242332
778.039978	1838.034058	2506.654541	2330.869385	73.709274
778.352722	1836.076904	2499.858154	2332.202881	74.742393
778.665405	1835.302612	2495.126465	2329.600586	74.913628
778.977966	1834.872559	2493.212158	2327.621826	74.847275
779.290649	1836.442871	2491.233643	2327.686279	75.022957
779.603149	1840.034424	2487.964600	2330.417725	75.684593
779.915588	1839.238647	2485.254150	2332.353760	76.331779
780.227966	1840.120361	2478.371582	2331.428467	76.977226
780.540405	1838.744019	2478.543457	2333.708496	77.362442
780.852722	1835.496460	2476.543457	2331.127441	77.315857
781.164917	1834.592896	2467.983398	2331.364014	78.430466
781.477173	1832.033325	2461.509277	2332.224365	79.461502
781.789246	1829.624634	2456.046387	2329.234863	79.756210
782.101379	1827.323120	2448.131348	2329.041260	80.816925
782.413452	1823.838989	2439.441895	2325.062256	81.419899
782.725403	1822.591675	2429.354736	2320.093750	81.992805
783.037292	1816.784424	2421.999268	2310.350586	81.552223
783.349182	1815.794922	2409.911621	2302.865967	81.982384
783.661072	1809.579224	2401.222168	2296.435059	82.288795
783.972839	1804.868652	2387.263672	2285.530518	82.531929
784.284546	1804.739746	2378.101074	2276.260742	82.238022
784.596191	1801.664063	2370.938965	2270.044678	82.276703
784.907898	1797.104370	2363.884277	2262.839355	82.172104
785.219421	1795.104248	2357.883545	2255.870850	81.873413
785.530884	1795.211670	2350.872070	2252.429688	82.283714
785.842346	1793.276123	2343.709961	2245.912598	82.232674
786.153748	1790.522949	2338.892090	2240.363525	82.032440
786.465149	1789.232300	2331.643799	2238.298584	82.790703
786.776428	1784.156616	2330.697510	2238.148193	83.066353
787.087646	1785.490112	2327.385254	2244.105957	84.631844
787.398804	1789.339844	2330.976807	2251.010010	85.236092
787.709961	1790.759644	2338.977783	2264.925781	86.492241
788.021057	1800.373535	2356.098389	2282.003174	86.666924
788.332031	1810.288696	2372.960693	2295.209229	86.181740
788.643005	1817.429565	2386.016113	2313.834961	87.305161
788.953918	1820.397583	2399.824219	2326.997803	87.431297
789.264832	1826.333862	2412.987061	2344.741943	88.367043
789.575623	1831.344971	2423.225098	2358.292236	89.029388
789.886353	1835.711304	2428.795898	2366.207275	89.446930
790.197083	1839.690308	2433.312500	2368.444092	89.072441
790.507690	1840.830200	2432.882080	2366.293213	88.752869
790.818359	1839.883667	2430.000244	2361.884033	88.457161
791.128845	1834.033569	2417.439453	2351.087158	88.626732
791.439331	1825.021606	2397.372314	2330.804932	88.369476
791.749756	1813.493408	2376.122314	2317.943115	89.659401
792.060120	1803.513794	2354.442139	2298.435303	89.834099
792.370483	1794.286987	2334.676270	2279.013428	89.699493
792.680786	1784.500732	2314.157715	2261.527588	90.063354
792.990967	1776.564331	2292.499023	2244.794434	90.753754
793.301086	1769.896606	2278.476074	2230.900146	90.645332
793.611267	1764.067993	2265.033447	2220.576172	91.125679
793.921326	1759.529785	2255.290039	2208.209229	90.503311
794.231323	1754.927246	2244.105713	2203.090088	91.615410
794.541260	1753.980835	2236.771729	2197.347412	91.834084
794.851074	1751.786743	2231.502197	2195.282715	92.449799
795.161011	1751.528931	2228.921143	2194.917236	92.877151
795.470764	1754.389404	2235.287354	2201.778320	93.031990
795.780518	1759.572754	2239.739990	2209.026367	93.603554
796.090149	1766.197388	2247.396729	2215.500244	93.371460
796.399780	1772.499268	2258.581055	2225.587646	93.212372
796.709412	1774.069214	2264.280518	2234.019043	93.826851
797.018860	1780.285156	2268.474609	2239.804443	94.127243
797.328308	1782.737061	2277.400635	2245.418213	93.534508
797.637756	1785.447144	2283.745361	2249.956299	93.219109
797.947205	1786.630005	2284.154053	2254.946289	94.129379
798.256470	1786.974121	2284.003662	2255.139648	94.192696
798.565674	1787.748413	2281.400879	2253.204102	94.288132
798.874817	1783.619019	2271.808350	2245.633057	94.638290
799.183960	1780.306641	2263.377197	2237.352539	94.612656
799.493103	1774.843628	2252.300537	2228.555664	95.026802
799.802124	1768.068481	2240.364014	2216.747803	94.999695
800.111084	1765.423096	2231.007813	2205.778564	94.581169
800.419983	1757.594238	2220.597900	2199.390869	95.419685
800.728821	1752.002075	2205.671387	2191.002930	96.766708
801.037659	1750.432007	2192.680420	2180.678955	97.286263
801.346436	1747.657471	2185.152588	2168.505371	96.194878
801.655151	1742.603027	2176.721436	2163.537109	96.962967
801.963745	1741.591919	2167.816895	2154.546631	96.886559
802.272400	1741.463013	2161.794678	2144.566650	95.901329
802.580933	1737.268799	2153.707520	2138.393799	96.322693
802.889404	1734.343750	2144.631348	2129.037842	96.199371
803.197815	1729.095825	2138.264893	2122.864990	96.236298
803.506226	1725.095581	2133.769775	2117.616943	96.047501
803.814575	1721.826294	2127.876465	2111.293701	95.916077
804.122864	1719.697144	2125.983643	2107.207275	95.378540
804.431030	1715.395386	2124.499756	2102.346191	94.584862
804.739197	1712.749878	2121.488525	2102.475098	95.348267
805.047241	1713.330566	2120.800293	2102.195557	95.434082
805.355408	1710.276489	2122.757568	2100.840820	94.686607
805.663391	1708.082764	2125.682617	2106.303711	95.359459
805.971313	1711.201294	2130.242432	2109.616211	95.077759
806.279175	1714.319946	2137.211182	2113.250977	94.334190
806.587036	1716.363281	2140.802979	2117.359131	94.476517
806.894836	1720.126953	2140.845947	2121.080078	95.301880
807.202576	1724.278198	2142.029053	2121.251953	95.026436
807.510193	1724.471802	2142.308350	2122.478027	95.254051
807.817810	1725.396484	2135.447266	2119.638916	96.144783
808.125427	1725.224487	2131.231934	2114.261963	95.820282
808.432922	1721.933594	2127.898193	2105.658691	94.521812
808.740295	1718.040649	2119.531494	2103.034912	95.891167
809.047729	1717.632080	2107.551270	2093.227051	96.326363
809.355103	1711.997192	2094.883057	2084.021729	97.163300
809.662415	1704.103516	2085.247559	2074.773193	97.251862
809.969604	1702.103394	2072.256836	2064.922852	98.018661
810.276794	1697.048950	2061.631836	2053.845947	97.864441
810.583923	1689.972778	2053.394043	2047.630127	98.413986
810.890991	1685.821777	2045.887817	2041.478882	98.775520
811.197998	1681.670654	2042.532715	2035.607056	98.080803
811.505005	1678.207886	2036.574951	2032.509888	98.865669
811.811829	1677.541138	2028.573853	2028.595581	100.006187
812.118713	1675.046387	2022.917236	2019.303955	98.961319
812.425537	1671.669800	2017.002441	2013.690552	99.040955
812.732300	1667.927246	2014.357056	2006.248779	97.659477
813.038940	1665.281738	2007.947754	2003.108521	98.587769
813.345581	1662.550049	2005.667847	1999.602417	98.232262
813.652100	1659.560425	2000.721069	1997.387207	99.022789
813.958740	1655.753540	1994.419067	1992.031982	99.295151
814.265137	1654.699585	1989.364746	1984.783691	98.631149
814.571533	1651.064941	1985.213745	1980.030396	98.448792
814.877930	1647.687988	1978.890503	1973.018799	98.227158
815.184265	1642.418701	1974.631714	1969.190552	98.362144
815.490540	1640.332397	1971.986206	1968.071899	98.819763
815.796692	1638.417969	1970.760254	1966.329712	98.666870
816.102844	1639.880737	1969.448120	1967.039429	99.269135
816.408936	1640.934326	1967.319092	1965.340332	99.393738
816.714966	1639.321411	1963.705566	1963.705811	100.000076
817.020935	1640.224609	1964.114380	1967.168457	100.942940
817.326843	1644.332764	1969.319214	1968.265259	99.675690
817.632690	1644.784424	1974.051147	1973.685547	99.888962
817.938477	1646.569580	1978.933228	1981.041382	100.634293
818.244263	1651.344482	1986.310547	1990.311279	101.194366
818.549988	1655.624512	1993.666504	1997.301270	101.075241
818.855652	1664.614746	2002.420288	2009.302856	102.037437
819.161194	1673.196533	2017.282349	2028.488159	103.256691
819.466797	1682.531250	2035.585571	2048.490479	103.655220
819.772278	1697.113647	2064.341797	2076.085205	103.197853
820.077698	1716.857910	2098.711670	2112.562988	103.627388
820.383057	1736.817505	2138.243408	2148.760986	102.620056
820.688354	1759.551514	2182.098389	2198.122070	103.792168
820.993652	1794.373047	2239.266846	2259.505859	104.549179
821.298828	1849.239868	2335.816162	2363.196289	105.627098
821.604004	1957.984497	2530.765381	2564.102783	105.820274
821.909058	2141.426758	2852.417969	2904.015869	107.257179
822.214111	2372.982178	3276.234131	3347.103027	107.845970
822.519165	2622.045410	3728.139160	3812.020996	107.583611
822.824036	2852.590088	4134.684570	4240.224121	108.231804
823.128906	3047.818604	4480.727051	4599.494141	108.288536
823.433716	3204.956299	4764.031250	4890.046387	108.082687
823.738525	3333.811035	4996.641113	5129.172852	107.970253
824.043213	3437.909912	5184.965332	5316.486328	107.528152
824.347900	3516.478760	5324.487793	5458.934082	107.436150
824.652466	3560.140381	5400.970703	5531.373047	107.083885
824.957031	3532.158447	5357.825684	5483.151855	106.864677
825.261536	3423.585693	5163.371094	5274.094238	106.364182
825.565979	3249.542725	4848.858887	4941.192383	105.773308
825.870300	3048.249023	4486.792480	4563.382324	105.324127
826.174622	2863.623535	4162.429688	4223.060547	104.668198
826.478821	2716.530029	3907.107666	3957.500732	104.232658
826.783142	2622.389404	3735.882568	3784.834229	104.396225
827.087280	2566.619141	3632.514648	3672.949219	103.793480
827.391357	2532.292236	3564.441406	3610.382813	104.451042
827.695435	2504.052246	3512.069580	3555.150146	104.273788
827.999451	2473.704346	3458.062744	3502.562744	104.520714
828.303406	2449.722900	3408.035156	3450.965088	104.479744
828.607239	2422.622559	3363.277100	3405.647705	104.504372
828.911011	2400.340332	3317.550781	3358.416260	104.455406
829.214844	2377.778320	3273.803711	3314.496338	104.541458
829.518616	2349.990234	3221.087402	3257.887695	104.224594
829.822205	2310.307861	3143.981201	3173.963135	103.596367
830.125793	2246.235352	3029.880615	3052.851318	102.931259
830.429382	2162.999268	2886.852539	2908.145264	102.941582
830.732849	2077.978027	2735.048584	2747.523193	101.898521
831.036316	1998.312134	2597.225098	2608.258545	101.842247
831.339661	1931.916870	2478.156494	2488.415771	101.878166
831.642944	1874.963379	2376.767822	2388.016113	102.241570
831.946228	1826.355347	2293.552979	2299.682617	101.312004
832.249512	1789.210938	2229.093506	2232.384277	100.748100
832.552673	1762.218384	2179.517334	2182.872803	100.804092
832.855774	1744.603394	2150.331055	2154.589600	101.049606
833.158813	1744.388306	2141.878418	2156.891113	103.776871
833.461731	1761.465576	2169.150635	2184.808350	103.840637
833.764771	1792.566284	2216.683350	2237.954834	105.015472
834.067627	1828.678223	2274.453857	2302.242432	106.233757
834.370422	1863.521118	2330.224365	2360.916260	106.576317
834.673157	1895.202637	2384.897461	2413.180664	105.775681
834.975891	1919.463745	2426.300781	2457.938965	106.242279
835.278564	1941.595581	2461.617188	2496.932861	106.791191
835.581177	1955.188599	2485.383301	2524.162354	107.314117
835.883728	1963.296997	2501.449951	2539.067383	106.990097
836.186218	1962.845337	2501.858398	2536.443604	106.416397
836.488647	1949.682495	2482.694580	2512.504883	105.592804
836.791077	1918.388184	2430.537598	2459.079102	105.572884
837.093384	1879.953247	2358.593506	2387.285156	105.994408
837.395630	1831.882813	2283.444336	2305.038574	104.782127
837.697815	1787.984863	2209.714844	2225.566406	103.758698
838.000061	1746.109009	2140.351318	2153.600586	103.360695
838.302124	1713.395020	2077.698242	2090.000977	103.377060
838.604126	1681.778198	2021.906372	2030.875122	102.636871
838.906128	1653.387817	1971.297974	1980.933594	103.030922
839.208069	1629.255737	1927.894653	1938.971558	103.709129
839.510010	1614.049316	1895.783325	1905.978149	103.618599
839.811829	1602.564087	1873.436401	1883.695801	103.787544
840.113586	1595.337402	1860.596191	1871.436279	104.086609
840.415222	1589.250732	1854.724487	1863.413940	103.273186
840.716919	1588.153809	1848.680786	1859.778809	104.259834
841.018555	1584.669434	1844.207153	1859.456299	105.875504
841.320068	1587.228882	1840.270996	1855.971802	106.204819
841.621521	1584.884399	1839.905151	1853.691895	105.406128
841.922974	1584.669434	1837.496582	1852.207886	105.818718
842.224365	1581.486328	1836.507080	1847.153809	104.174850
842.525635	1580.367920	1829.796509	1837.518066	103.095695
842.826965	1575.205933	1815.300049	1826.957764	104.855476
843.128174	1562.042969	1796.114868	1806.697144	104.520950
843.429260	1550.062988	1774.564087	1782.909058	103.717117
843.730408	1537.050659	1751.808472	1757.035034	102.433701
844.031433	1523.134888	1728.859375	1734.558960	102.770493
844.332397	1514.166016	1708.362183	1710.212036	100.952568
844.633362	1501.132324	1689.413574	1690.983887	100.834023
844.934204	1490.485840	1670.378906	1672.271851	101.052261
845.235046	1481.495483	1652.462891	1655.280396	101.647980
845.535828	1475.924927	1636.116699	1638.934326	101.758911
845.836487	1466.848511	1625.061401	1626.717651	101.046852
846.137146	1458.696899	1616.716431	1611.683594	96.815056
846.437744	1452.437988	1608.263672	1600.198120	94.823990
846.738281	1447.577026	1599.789551	1592.025269	94.899055
847.038757	1441.984985	1591.508911	1583.508179	94.649193
847.339172	1438.350098	1582.497192	1574.797363	94.658356
847.639526	1433.231323	1576.689819	1569.699951	95.127602
847.939819	1429.703979	1571.979614	1564.774536	94.935829
848.240112	1428.284424	1570.302002	1558.644653	91.791618
848.540283	1425.251831	1569.205078	1554.579712	89.840195
848.840393	1424.499146	1570.624512	1552.428833	87.547897
849.140564	1420.412598	1567.936035	1551.052368	88.555267
849.440552	1419.036011	1564.043091	1547.955200	88.905441
849.740540	1419.294189	1560.580444	1548.406982	91.383835
850.040405	1416.863770	1562.344116	1543.933228	87.344757
850.340210	1417.358398	1559.139526	1541.244629	87.378502
850.640137	1417.380005	1556.988403	1538.792847	86.966721
850.939819	1416.024902	1553.869873	1536.792480	87.611160
851.239502	1417.530518	1549.202759	1534.512573	88.843369
851.539185	1414.885132	1545.438721	1531.974731	89.687004
851.838745	1414.863403	1543.890259	1530.555054	89.664780
852.138245	1411.314575	1536.190308	1528.382813	93.747787
852.437744	1412.045898	1532.598511	1525.586792	94.183685
852.737122	1410.927490	1528.555054	1523.629639	95.812706
853.036499	1408.970215	1525.651489	1519.607544	94.820122
853.335815	1410.669434	1518.682861	1517.865356	99.243149
853.635010	1409.443481	1517.478394	1513.929565	96.715111
853.934204	1408.518677	1517.736328	1512.208862	94.939034
854.233276	1407.077637	1515.478149	1508.617065	93.670616
854.532410	1403.206177	1514.230591	1506.186646	92.754799
854.831482	1400.990723	1513.628418	1505.369507	92.667717
855.130371	1398.237671	1508.208252	1502.229004	94.562866
855.429260	1398.581909	1509.326660	1500.766479	92.270348
855.728088	1397.248413	1509.455933	1496.142456	88.134949
856.026855	1395.957886	1508.681641	1494.658325	87.559570
856.325623	1396.495728	1506.917847	1491.561279	86.092850
856.624329	1393.054443	1508.487915	1488.700562	82.858215
856.922913	1392.538208	1505.713379	1488.593018	84.872688
857.221436	1389.935669	1502.487183	1488.937134	87.961021
857.519958	1390.796021	1502.250488	1488.421021	87.591820
857.818420	1394.280151	1502.659302	1487.367065	85.890060
858.116821	1395.871826	1501.046143	1485.904419	85.603210
858.415161	1396.108398	1502.444214	1483.130005	81.836594
858.713379	1397.656982	1498.357544	1482.398804	84.152283
859.011658	1397.592529	1495.496948	1482.958008	87.192673
859.309814	1397.162231	1494.722778	1480.979248	85.912819
859.607910	1396.087036	1493.776489	1479.903809	85.799202
859.905945	1396.065430	1491.152344	1481.495361	89.844048
860.203979	1394.774902	1491.647217	1481.624512	89.653694
860.501953	1395.377197	1493.131226	1477.710083	84.224548
860.799744	1395.162231	1489.001709	1478.441284	88.746284
861.097656	1392.258667	1487.668091	1479.043579	90.960526
861.395325	1388.752808	1486.291626	1477.215332	90.694687
861.693115	1386.924561	1484.721558	1479.903809	95.073723
861.990784	1384.214478	1486.678833	1479.753174	93.240906
862.288330	1384.515747	1485.603394	1477.688477	92.170242
862.585815	1382.988525	1484.850708	1480.226440	95.460274
862.883301	1381.461670	1483.237427	1480.699585	97.506439
863.180786	1379.676270	1482.119141	1479.021973	96.976685
863.478149	1379.052612	1479.710083	1478.505859	98.803642
863.775452	1380.816284	1477.000122	1477.796021	100.827477
864.072693	1380.063599	1478.957520	1474.075073	95.062943
864.369873	1378.385864	1477.236816	1475.645264	98.389946
864.667114	1382.278931	1478.011108	1473.580444	95.371811
864.964111	1385.526611	1479.495239	1472.290039	92.332336
865.261169	1385.741821	1477.559448	1471.537231	93.441109
865.558105	1386.085815	1478.484253	1473.451416	94.553116
865.855042	1386.623535	1479.710327	1471.300659	90.965775
866.151917	1386.558960	1479.387695	1468.547485	88.322357
866.448730	1387.311646	1479.215698	1468.741089	88.602669
866.745422	1388.300903	1479.581177	1466.224609	85.367523
867.042114	1384.881226	1478.871582	1465.686890	85.972290
867.338806	1383.504639	1476.828247	1465.278198	87.623657
867.635376	1384.429565	1473.279419	1459.815186	84.846085
867.931824	1381.697998	1470.418823	1462.009033	90.521065
868.228271	1377.482544	1468.289551	1459.965698	90.833466
868.524658	1376.987793	1467.644287	1459.234497	90.723457
868.821045	1375.654297	1464.762207	1456.459961	90.682930
869.117310	1372.944336	1463.235229	1458.933350	95.235535
869.413574	1373.718628	1464.590088	1461.170166	96.236526
869.709717	1373.309937	1463.858887	1460.804565	96.626884
870.005859	1372.535645	1463.321167	1462.804810	99.431236
870.301880	1374.751099	1464.073975	1461.880005	97.543777
870.597900	1373.482178	1465.471924	1463.944824	98.339928
870.893860	1372.944458	1469.988647	1463.493286	93.306801
871.189636	1372.858521	1471.795288	1463.149170	91.260963
871.485535	1375.181274	1473.128784	1464.009277	90.689392
871.781311	1373.159546	1473.838379	1464.117065	90.344231
872.077026	1372.944336	1476.053711	1463.944946	88.256386
872.372681	1373.116333	1476.914063	1461.471436	85.122383
872.668274	1372.557129	1475.623535	1461.148804	85.955917
872.963806	1373.180908	1475.322388	1461.557495	86.523697
873.259338	1372.987305	1476.806519	1459.277466	83.115791
873.554688	1371.202026	1477.107666	1459.621704	83.489113
873.850098	1372.965698	1475.989258	1461.170288	85.615944
874.145447	1374.170166	1474.548218	1461.406738	86.908012
874.440674	1374.815430	1472.956665	1461.471436	88.297241
874.735840	1375.740356	1470.762817	1460.761597	89.474884
875.031006	1375.310181	1471.816772	1461.600464	89.413872
875.326050	1376.858887	1473.322266	1462.718872	89.007858
875.621094	1378.493530	1472.999756	1463.708252	90.168365
875.916077	1378.041870	1472.397461	1465.041870	92.204391
876.210999	1377.955688	1474.505249	1464.955688	90.109161
876.505798	1377.288940	1473.386719	1467.493774	93.867760
876.800598	1377.891113	1472.096313	1469.558472	97.306046
877.095337	1378.450317	1474.225586	1466.568848	92.005516
877.390015	1380.256958	1476.441040	1469.106812	92.374802
877.684692	1383.956421	1477.709961	1470.074585	91.855904
877.979187	1384.063965	1475.107544	1473.193359	97.897507
878.273804	1385.999634	1474.612793	1471.601685	96.601959
878.568237	1385.462036	1472.074829	1472.999634	101.067749
878.862610	1389.720703	1475.301147	1475.408325	100.125237
879.156921	1391.548828	1481.366455	1474.913818	92.815849
879.451172	1393.570557	1484.979614	1479.473511	93.976410
879.745422	1397.377441	1492.400024	1487.689575	95.042809
880.039612	1404.453613	1503.562622	1498.336060	94.726448
880.333679	1414.175293	1517.392212	1513.714355	96.436768
880.627686	1426.692871	1541.588989	1535.910645	95.057846
880.921692	1448.071899	1581.056152	1574.883179	95.358116
881.215698	1485.151855	1648.505371	1637.256592	93.113846
881.509460	1540.857544	1743.699951	1734.881714	95.652664
881.803345	1615.834473	1867.951904	1862.661011	97.901421
882.097046	1697.027344	2007.667969	2013.023804	101.724129
882.390808	1781.962769	2147.577881	2166.698730	105.229774
882.684448	1864.316895	2284.390625	2304.995117	104.904968
882.978027	1938.240112	2405.029053	2429.591309	105.261963
883.271545	2002.420044	2512.375732	2541.433105	105.698021
883.565002	2054.275879	2604.021729	2636.154297	105.844986
883.858398	2095.011963	2674.782959	2711.239014	106.288010
884.151733	2119.531494	2717.541016	2753.502197	106.013481
884.445068	2122.865479	2726.273438	2765.245850	106.458717
884.738281	2102.690674	2690.333740	2728.531494	106.500160
885.031433	2051.652100	2612.775635	2646.564453	106.021637
885.324585	1987.816040	2503.751221	2529.582275	105.006645
885.617676	1917.505981	2386.231201	2404.384277	103.872864
885.910645	1845.475830	2264.646240	2284.412354	104.715530
886.203552	1777.919189	2154.202393	2170.570068	104.349831
886.496521	1716.234253	2049.866943	2061.975830	103.629410
886.789368	1661.582153	1953.898071	1965.684448	104.032066
887.082153	1610.737183	1865.629028	1877.781250	104.767601
887.374817	1567.570679	1788.802368	1802.761230	106.309616
887.667480	1530.146606	1719.998047	1733.806274	107.273178
887.960083	1495.884277	1663.797607	1678.681152	108.863823
888.252625	1474.569824	1620.888794	1636.030518	110.348434
888.545166	1457.858154	1588.239746	1601.832886	110.425659
888.837524	1442.092651	1563.978638	1574.281250	108.452667
889.129883	1430.650513	1542.836304	1551.805176	107.994659
889.422241	1421.100952	1526.576172	1532.383301	105.505684
889.714478	1416.218750	1510.144165	1511.090454	101.007492
890.006714	1430.177124	1493.819580	1491.216919	95.910492
890.298767	1380.493774	1503.756104	1480.333984	80.998154
890.590881	1384.515625	1464.009399	1475.838989	114.881149
890.882935	1380.020264	1486.011963	1468.741089	83.705444
>>>>>End Processed Spectral Data<<<<<
