Jaz Data File
++++++++++++++++++++++++++++++++++++
Date: Mon Apr 22 19:27:30 2019
User: jaz
Dark Spectrum Present: Yes
Reference Spectrum Present: Yes
Processed Spectrum Present: Yes
Spectrometers: JAZA2928
Integration Time (usec): 40000 (JAZA2928)
Spectra Averaged: 10 (JAZA2928)
Boxcar Smoothing: 5 (JAZA2928)
Correct for Electrical Dark: No (JAZA2928)
Strobe/Lamp Enabled: Yes (JAZA2928)
Correct for Detector Non-linearity: No (JAZA2928)
Correct for Stray Light: No (JAZA2928)
Number of Pixels in Processed Spectrum: 2048
>>>>>Begin Processed Spectral Data<<<<<
W	D	R	S	P
190.104553	0.000000	0.000000	0.000000	0.000000
190.488098	0.000000	0.000000	0.000000	0.000000
190.871613	1077.423828	1084.994751	1052.345459	-331.245880
191.255096	1080.499390	1079.079956	1071.745605	616.709656
191.638535	0.000000	0.000000	0.000000	0.000000
192.021942	903.294739	908.865295	888.282166	-269.498627
192.405334	1004.317993	1010.039124	990.445313	-242.481461
192.788696	1107.599609	1112.288330	1092.178345	-328.901337
193.172012	1111.471069	1116.052246	1099.039429	-271.363464
193.555313	1116.138306	1118.654663	1103.082886	-518.822144
193.938568	1122.375488	1122.956299	1107.470581	-2566.225342
194.321793	1125.386597	1126.505127	1112.460449	-1155.636841
194.704987	1126.655640	1129.473267	1116.224487	-370.210541
195.088150	1127.429810	1129.387207	1118.869995	-437.305908
195.471298	1126.505249	1131.710083	1121.257324	-100.827904
195.854401	1127.494629	1132.054199	1122.784302	-103.306381
196.237457	1129.064575	1128.957031	1125.494263	3319.863770
196.620499	1129.043091	1130.441040	1126.548218	-178.466644
197.003494	1127.171875	1130.140137	1125.881470	-43.473434
197.386475	1126.999878	1131.129395	1122.762817	-102.604271
197.769424	1126.419067	1132.441406	1121.859375	-75.712982
198.152344	1123.365112	1134.527832	1121.364868	-17.918968
198.535217	1120.934570	1135.947266	1121.149658	1.432707
198.918076	1121.149658	1138.098022	1119.751587	-8.249004
199.300903	1121.838013	1139.668091	1117.278198	-25.573721
199.683670	1123.838257	1144.421387	1116.288818	-36.677795
200.066422	1123.730591	1145.023560	1115.837036	-37.071178
200.449142	1121.967041	1147.884277	1115.471436	-25.062878
200.831848	1122.719849	1149.174683	1114.632690	-30.569681
201.214508	1123.537109	1149.002686	1116.805054	-26.435905
201.597137	1122.891846	1150.120972	1119.192505	-13.585970
201.979736	1122.612183	1152.874146	1119.450684	-10.447105
202.362274	1122.633789	1149.088623	1117.600952	-19.024261
202.744827	1121.257202	1147.625977	1114.568237	-25.366991
203.127319	1119.171021	1146.055908	1114.675781	-16.720320
203.509796	1116.525513	1142.786621	1115.407104	-4.258801
203.892227	1113.406860	1136.872070	1116.116699	11.548326
204.274643	1110.567749	1137.151489	1114.417725	14.482445
204.657013	1110.804321	1134.850342	1112.460449	6.887326
205.039352	1108.223389	1132.441406	1110.395630	8.969525
205.421661	1104.932617	1135.796753	1106.502563	5.086636
205.803940	1103.964722	1135.516968	1104.781982	2.590183
206.186188	1103.771118	1133.344727	1103.383911	-1.309299
206.568405	1101.921387	1134.248169	1103.340942	4.391268
206.950592	1103.297974	1136.119263	1102.674194	-1.900533
207.332748	1101.340698	1133.882446	1098.953247	-7.336579
207.714859	1099.964233	1136.269775	1097.490723	-6.813039
208.096939	1099.598511	1137.732422	1094.995850	-12.069733
208.478989	1098.695190	1137.280762	1094.393677	-11.147985
208.861008	1098.931763	1138.291626	1094.372192	-11.584314
209.243011	1099.318848	1140.765137	1094.759277	-11.001155
209.624969	1098.652222	1139.410034	1096.028320	-6.437788
210.006897	1098.480103	1140.377808	1094.845337	-8.675333
210.388794	1097.469238	1141.345703	1097.103638	-0.833250
210.770645	1097.426270	1141.603882	1096.264893	-2.628881
211.152481	1097.146606	1140.549927	1099.125488	4.559287
211.534286	1097.404785	1143.152344	1102.631348	11.424790
211.916061	1097.490723	1141.238159	1104.975586	17.109261
212.297791	1097.985474	1142.119995	1105.836060	17.787857
212.679489	1097.125122	1143.195435	1105.534912	18.254250
213.061157	1093.662354	1142.313599	1105.986450	25.331514
213.442795	1093.812988	1142.786743	1104.846558	22.529556
213.824402	1094.071167	1142.829712	1104.567017	21.526175
214.205963	1094.823730	1141.496216	1105.319824	22.488825
214.587524	1093.705444	1141.195190	1102.889404	19.338827
214.969025	1094.952881	1142.937378	1101.964478	14.612212
215.350510	1093.554932	1145.948486	1099.039429	10.467885
215.731949	1092.823730	1144.572021	1097.598267	9.226461
216.113358	1092.221558	1147.841309	1097.727417	9.899108
216.494736	1093.361328	1147.239014	1099.189941	10.818233
216.876083	1093.124878	1145.324707	1102.330200	17.634775
217.257401	1094.823975	1146.765747	1102.824707	15.403272
217.638702	1094.910034	1149.389771	1104.953979	18.436111
218.019943	1095.791748	1151.841553	1105.599243	17.497822
218.401169	1094.006592	1152.142700	1109.513794	26.673960
218.782349	1094.372070	1154.788208	1111.234497	27.910467
219.163498	1094.436646	1158.272583	1113.084106	29.211540
219.544632	1098.286621	1158.659668	1114.073608	26.149065
219.925705	1102.416138	1162.423584	1114.202637	19.641727
220.306778	1103.104370	1163.929199	1114.095093	18.069468
220.687805	1101.082520	1168.661011	1114.525269	19.892052
221.068802	1101.770996	1176.640503	1115.364014	18.155613
221.449738	1101.985840	1182.598145	1118.073975	19.957418
221.830673	1099.340454	1186.620117	1120.160278	23.854153
222.211563	1098.394043	1191.932617	1119.945190	23.039850
222.592438	1098.759766	1200.084106	1119.708618	20.675045
222.973267	1099.060913	1206.730225	1119.988159	19.436594
223.354065	1097.727417	1211.655518	1124.268433	23.296286
223.734848	1093.791382	1217.828369	1127.731201	27.362659
224.115555	1090.436157	1228.302734	1132.226318	30.312033
224.496262	1092.694458	1238.497559	1135.387939	29.281601
224.876923	1092.178223	1246.498535	1136.958130	29.017508
225.257568	1091.016846	1255.639526	1140.635986	30.141132
225.638168	1088.113281	1265.554688	1143.969727	31.478811
226.018723	1090.479248	1277.147583	1147.518555	30.556498
226.399277	1092.328735	1291.923462	1155.713013	31.756489
226.779785	1094.759277	1309.861206	1164.015259	32.196819
227.160263	1093.726929	1333.046875	1175.608032	34.214073
227.540695	1093.103149	1363.351685	1186.555664	34.580212
227.921112	1091.984741	1408.217529	1201.245605	34.550770
228.301483	1092.501099	1466.525879	1219.398438	33.927521
228.681824	1092.006348	1543.460083	1246.864136	34.302029
229.062134	1095.339966	1631.212891	1280.610229	34.573544
229.442413	1095.404419	1713.438232	1307.129761	34.257889
229.822647	1099.469604	1782.349976	1328.293579	33.508648
230.202881	1100.846069	1832.011841	1346.575439	33.607887
230.583054	1100.674072	1871.651245	1359.007202	33.507236
230.963196	1098.372681	1904.106934	1366.083252	33.225666
231.343292	1097.576782	1930.819946	1372.987305	33.052837
231.723404	1097.146606	1946.348755	1376.643677	32.912903
232.103439	1098.372681	1940.670654	1374.535889	32.786877
232.483459	1098.630737	1913.054321	1368.470581	33.132618
232.863434	1096.802612	1867.650757	1352.081543	33.116631
233.243393	1091.662109	1814.934814	1328.895630	32.800011
233.623306	1092.909668	1767.294434	1311.624878	32.431812
234.003174	1092.242920	1737.763672	1302.484009	32.569221
234.383041	1089.382324	1724.880371	1295.708984	32.466923
234.762848	1090.930786	1717.675293	1292.676270	32.189430
235.142639	1091.855591	1711.932495	1292.332153	32.330917
235.522385	1094.135498	1708.491089	1289.729614	31.837280
235.902115	1095.834839	1710.212036	1288.159668	31.304031
236.281799	1095.641113	1716.384766	1291.127808	31.492338
236.661438	1096.178833	1729.009888	1293.601196	31.196693
237.041077	1095.576660	1740.946899	1295.579956	30.990475
237.420654	1098.458618	1747.033569	1300.053589	31.082756
237.800217	1097.963989	1755.550659	1300.849487	30.853043
238.179733	1098.351074	1761.530029	1302.935669	30.849079
238.559219	1100.372925	1769.509644	1303.602417	30.371893
238.938690	1098.265137	1782.220703	1305.581177	30.311331
239.318100	1096.630493	1800.158325	1306.785522	29.871601
239.697510	1097.017578	1821.687988	1311.216187	29.558073
240.076859	1097.168091	1847.260986	1319.561279	29.648752
240.456177	1098.178955	1891.976440	1330.874634	29.314238
240.835464	1096.651855	1948.263184	1344.639648	29.119833
241.214722	1097.275757	2024.745728	1366.814453	29.061716
241.593948	1097.963989	2132.092285	1394.774902	28.701555
241.973129	1097.856567	2259.333740	1433.532471	28.900774
242.352295	1097.297363	2406.750000	1472.117920	28.624216
242.731415	1097.856323	2553.327148	1515.650024	28.705055
243.110519	1095.877686	2674.417480	1550.987915	28.831091
243.489578	1095.877686	2769.440186	1582.281982	29.064005
243.868607	1096.049805	2835.943115	1605.080566	29.256435
244.247604	1097.684448	2886.035156	1618.135986	29.102320
244.626541	1098.910278	2917.953125	1628.502808	29.113802
245.005493	1099.792114	2945.719727	1636.740601	29.088274
245.384369	1100.114868	2970.948975	1643.063721	29.021753
245.763229	1100.609497	2998.909180	1653.516724	29.126446
246.142059	1102.760254	3052.937500	1669.389771	29.055283
246.520859	1102.351685	3154.261475	1700.296753	29.140905
246.899612	1100.889038	3308.366943	1740.495361	28.974527
247.278336	1101.942993	3494.518799	1790.501465	28.778963
247.657043	1102.394653	3664.540039	1835.517700	28.613638
248.035690	1101.405273	3803.309570	1871.715698	28.509909
248.414322	1100.867676	3921.002197	1904.472656	28.495272
248.792908	1099.297607	4008.367432	1928.432739	28.501726
249.171478	1099.835205	4061.642822	1944.047607	28.503283
249.550003	1101.104126	4068.827148	1946.305786	28.479801
249.928482	1100.588013	4035.661621	1935.487061	28.445591
250.306961	1099.620117	3942.724854	1906.429688	28.377764
250.685364	1099.362061	3780.747803	1858.875488	28.325407
251.063782	1100.652466	3577.324951	1803.234253	28.367975
251.442123	1101.168701	3379.536865	1749.141724	28.440224
251.820450	1102.416138	3241.261963	1712.427246	28.520576
252.198761	1102.201050	3168.177490	1691.392456	28.518785
252.576996	1101.276245	3111.740479	1675.476563	28.560583
252.955246	1101.921509	3063.153809	1660.657471	28.489025
253.333420	1101.039673	3017.792969	1646.483643	28.456659
253.711578	1100.437500	2990.306152	1637.815918	28.434696
254.089706	1100.308472	2965.872803	1633.836792	28.598763
254.467804	1098.716675	2948.537354	1629.363159	28.686375
254.845871	1099.856567	2933.202148	1624.308716	28.606289
255.223877	1098.996338	2907.005371	1616.200317	28.606272
255.601898	1100.480347	2870.334229	1602.822144	28.383236
255.979828	1098.265137	2818.026367	1583.464966	28.213209
256.357727	1098.630737	2763.826172	1569.764404	28.292995
256.735657	1098.480225	2741.457764	1562.817261	28.261923
257.113525	1098.071411	2758.492432	1566.215698	28.194313
257.491333	1098.480347	2812.197754	1581.636841	28.193476
257.869110	1097.835083	2891.799072	1604.026978	28.216391
258.246887	1097.684448	3007.146729	1632.094849	27.987482
258.624573	1097.232788	3174.092285	1676.594971	27.896072
259.002289	1097.275757	3402.142090	1739.247681	27.852894
259.379944	1098.566284	3704.265625	1819.322266	27.660751
259.757538	1098.415649	4068.052490	1917.441895	27.580015
260.135162	1099.318970	4428.032715	2014.464844	27.492476
260.512665	1100.760010	4715.939453	2087.807129	27.302853
260.890228	1099.792114	4904.715332	2137.426025	27.270823
261.267700	1101.147095	5016.622070	2165.558594	27.184734
261.645142	1101.942871	5083.039063	2180.893555	27.101849
262.022552	1103.211914	5120.677734	2189.410889	27.036919
262.399994	1102.717285	5125.904297	2187.367676	26.959980
262.777313	1103.857178	5080.715820	2171.989746	26.858702
263.154602	1104.911011	4961.216309	2137.619629	26.779743
263.531921	1102.824707	4760.159180	2080.903076	26.742929
263.909149	1102.459106	4480.791504	2004.291382	26.694597
264.286377	1101.491333	4192.583984	1928.217285	26.745426
264.663574	1099.878174	3972.277100	1868.812134	26.769749
265.040710	1101.921509	3845.767090	1830.656982	26.558908
265.417816	1099.168457	3795.782227	1812.439453	26.450617
265.794891	1099.340576	3797.803955	1812.482788	26.427715
266.171936	1099.104004	3841.508057	1822.957031	26.394835
266.548950	1099.921265	3899.708740	1838.141724	26.367016
266.925934	1101.383789	3954.425049	1852.530762	26.327940
267.302887	1100.329834	4020.368896	1867.973511	26.288815
267.679810	1102.308594	4091.776367	1883.760254	26.140160
268.056671	1102.652710	4176.216797	1902.966919	26.038639
268.433502	1101.749512	4266.658203	1921.700317	25.907566
268.810333	1101.684814	4350.517578	1940.283203	25.812298
269.187073	1099.039429	4426.677734	1956.199219	25.758804
269.563843	1101.362305	4488.276855	1971.921875	25.703617
269.940521	1100.588013	4541.895996	1982.869263	25.637962
270.317200	1099.899780	4605.710449	1992.806274	25.469332
270.693848	1099.146973	4713.035645	2019.798706	25.475376
271.070435	1097.705933	4884.304199	2062.707275	25.484652
271.447021	1095.856323	5082.371582	2106.497559	25.351496
271.823547	1093.920532	5251.705078	2148.309082	25.359383
272.200043	1092.931152	5382.043457	2180.958496	25.367191
272.576538	1096.501465	5496.100098	2207.735840	25.257631
272.952972	1096.630493	5606.415527	2235.545898	25.254316
273.329346	1099.641602	5698.835449	2260.774902	25.246452
273.705688	1097.490723	5766.155762	2278.131836	25.288624
274.082062	1094.221558	5809.837891	2286.111084	25.275372
274.458344	1094.049438	5806.568848	2288.713623	25.350859
274.834595	1093.060059	5748.755371	2269.635986	25.271755
275.210846	1093.748413	5652.141113	2241.654053	25.182245
275.587006	1095.361572	5538.041016	2215.650879	25.216522
275.963165	1096.135864	5473.688965	2197.648682	25.162750
276.339294	1095.920898	5444.265625	2186.443115	25.079020
276.715393	1094.329224	5440.265137	2183.560791	25.063221
277.091461	1093.942017	5437.361816	2182.399414	25.059916
277.467438	1092.931152	5444.867676	2181.732666	25.018782
277.843445	1094.372192	5460.289551	2184.765381	24.975121
278.219452	1097.361816	5481.604004	2190.551025	24.934507
278.595337	1097.275757	5513.521484	2193.669922	24.826385
278.971191	1097.318726	5547.805664	2202.337646	24.829170
279.347046	1096.716553	5572.969727	2209.263184	24.854418
279.722870	1095.727051	5607.189453	2210.037354	24.699537
280.098663	1096.953125	5631.234863	2215.242432	24.662987
280.474396	1098.222168	5683.004883	2226.168701	24.601963
280.850098	1099.727539	5749.679688	2240.922852	24.542088
281.225800	1099.770630	5852.595703	2260.473877	24.421333
281.601440	1099.125488	5983.816895	2292.714600	24.435303
281.977051	1098.996338	6153.665527	2331.149414	24.376534
282.352600	1100.265503	6314.695801	2367.992188	24.311893
282.728149	1102.996948	6448.454590	2398.899414	24.243059
283.103668	1104.007935	6547.198242	2416.385254	24.110443
283.479156	1102.588379	6633.079590	2433.075439	24.057304
283.854553	1102.502319	6720.380859	2456.863281	24.108051
284.229950	1098.480347	6819.877930	2478.220947	24.115448
284.605347	1096.501587	6916.750000	2501.771973	24.144508
284.980652	1094.888428	7007.728516	2522.183350	24.138906
285.355988	1092.500977	7095.331055	2542.357910	24.152889
285.731201	1094.243042	7173.210938	2560.295898	24.116806
286.106445	1094.888428	7234.551758	2572.211182	24.061951
286.481659	1094.802368	7309.464355	2584.449463	23.969881
286.856781	1091.490112	7380.248047	2598.085693	23.956966
287.231934	1093.942017	7436.878418	2613.291504	23.953409
287.607025	1097.254272	7468.667480	2618.776367	23.880449
287.982056	1100.114868	7471.699707	2617.033936	23.807562
288.357086	1103.577637	7457.009766	2612.280762	23.746269
288.732086	1104.201294	7427.049805	2604.688232	23.731186
289.107025	1104.373413	7399.476563	2595.074219	23.680325
289.481934	1106.137085	7369.988770	2588.557129	23.666271
289.856842	1104.395020	7367.579590	2584.793213	23.636509
290.231659	1103.276611	7383.409668	2589.804688	23.670328
290.606506	1102.717407	7399.583984	2595.934570	23.713654
290.981262	1104.029419	7420.532715	2600.988770	23.699177
291.355988	1103.341064	7460.408203	2608.387695	23.675173
291.730713	1101.276245	7499.531250	2616.646729	23.684122
292.105377	1100.996582	7523.040527	2626.024414	23.746767
292.480011	1102.115112	7531.126953	2634.584473	23.836781
292.854614	1101.340698	7544.418945	2643.875977	23.940968
293.229187	1102.093628	7573.949707	2656.544189	24.018621
293.603729	1104.115356	7617.632324	2674.245117	24.105713
293.978241	1103.771240	7652.840332	2692.096924	24.252693
294.352692	1101.964478	7681.683105	2709.217285	24.427378
294.727081	1101.061035	7708.525391	2729.650146	24.647717
295.101501	1098.609253	7761.865234	2757.847168	24.901308
295.475830	1095.512085	7848.133301	2797.744629	25.208471
295.850189	1095.038940	7991.893555	2850.912598	25.459051
296.224457	1091.683716	8203.381836	2919.802734	25.705801
296.598694	1089.403809	8463.350586	3003.082031	25.951885
296.972931	1089.016602	8729.597656	3082.790527	26.094532
297.347107	1088.586426	8935.946289	3152.885254	26.305647
297.721283	1087.898071	9061.037109	3196.460938	26.445831
298.095367	1089.769409	9098.051758	3224.421143	26.655552
298.469452	1092.737427	9080.931641	3232.486572	26.786392
298.843475	1092.199707	9037.636719	3232.830566	26.941637
299.217529	1094.587158	8972.337891	3225.840576	27.054085
299.591492	1096.436890	8892.672852	3209.687744	27.106043
299.965424	1098.135864	8774.442383	3188.523682	27.231686
300.339325	1102.179565	8594.958008	3147.615723	27.298767
300.713196	1103.513062	8374.263672	3089.243164	27.311213
301.087036	1105.448730	8138.126465	3028.913086	27.350384
301.460815	1104.975586	7937.585938	2979.853027	27.440134
301.834564	1103.771118	7774.533203	2942.751709	27.567774
302.208282	1103.125854	7649.119141	2900.811035	27.462376
302.582001	1103.297974	7531.814453	2867.817871	27.448322
302.955658	1103.297974	7423.306641	2838.975586	27.463215
303.329254	1100.889038	7332.241699	2815.252197	27.511894
303.702820	1101.276245	7248.747070	2797.077881	27.585356
304.076416	1100.910645	7176.007813	2776.494873	27.581192
304.449921	1099.491089	7122.452637	2760.385254	27.576038
304.823395	1099.749146	7062.165527	2743.587646	27.570005
305.196838	1099.426636	7003.878418	2727.951172	27.581301
305.570251	1097.921021	6932.858887	2708.099365	27.595467
305.943604	1096.479980	6870.485840	2687.838623	27.560738
306.316986	1096.350952	6825.146973	2676.933838	27.590141
306.690277	1094.759399	6800.218750	2666.846680	27.554087
307.063507	1094.200073	6800.971680	2662.136475	27.475016
307.436768	1095.038940	6830.372070	2665.771240	27.386942
307.809937	1092.328979	6880.078125	2674.202393	27.331409
308.183136	1093.081665	6951.484375	2691.150635	27.278236
308.556244	1091.640747	7039.259277	2711.260742	27.231403
308.929321	1092.802002	7145.702637	2740.942139	27.228931
309.302399	1091.963379	7244.488770	2769.719727	27.269394
309.675446	1093.597778	7353.104492	2796.066895	27.198135
310.048401	1095.167969	7449.568359	2821.467773	27.166998
310.421356	1093.662354	7553.624512	2848.976563	27.172207
310.794281	1094.049438	7670.606445	2879.023193	27.141462
311.167145	1096.264771	7784.168945	2908.102051	27.091255
311.539978	1100.437378	7864.242676	2927.954102	27.019062
311.912781	1102.588135	7910.098145	2937.116455	26.948597
312.285553	1101.147095	7899.667480	2931.158936	26.917795
312.658295	1102.308472	7851.940430	2919.372803	26.920940
313.031006	1101.254639	7786.728027	2896.359131	26.850821
313.403656	1101.792358	7728.354980	2877.410400	26.795462
313.776276	1101.663208	7684.435547	2862.978516	26.756435
314.148865	1102.029053	7688.415527	2860.096436	26.692440
314.521454	1105.040161	7694.351563	2861.537109	26.656759
314.893982	1103.147583	7677.596680	2855.192383	26.649302
315.266449	1101.018311	7620.212891	2837.813721	26.641258
315.638885	1095.899292	7539.772949	2816.692871	26.704334
316.011322	1094.544189	7452.429199	2794.109619	26.731617
316.383667	1094.759277	7385.065430	2776.881836	26.741505
316.756042	1094.458130	7327.316895	2761.524902	26.746422
317.128326	1094.049561	7277.848145	2747.351318	26.736021
317.500610	1094.329102	7220.959473	2733.241943	26.750641
317.872833	1094.157104	7145.443848	2714.314697	26.773771
318.245087	1094.608643	7047.453613	2685.322021	26.721903
318.617218	1093.468872	6948.925293	2657.619629	26.712704
318.989319	1094.780762	6877.604980	2641.316406	26.743605
319.361420	1097.684448	6835.212402	2630.992432	26.724192
319.733490	1100.889160	6807.423828	2621.765625	26.651489
320.105530	1099.792114	6786.690430	2615.141113	26.646317
320.477509	1100.566528	6764.343750	2606.064941	26.581173
320.849457	1101.512817	6742.125488	2598.988770	26.548107
321.221375	1099.899780	6731.974609	2594.214111	26.532217
321.593231	1100.200806	6729.565430	2588.622070	26.440306
321.965088	1100.802979	6731.823242	2588.987549	26.428328
322.336884	1102.459106	6746.857422	2594.300049	26.430468
322.708618	1100.265381	6786.432617	2599.311279	26.363029
323.080414	1101.254761	6844.159668	2613.786133	26.337393
323.452118	1102.179565	6947.871582	2639.875488	26.304771
323.823761	1099.899658	7085.007324	2674.589600	26.310137
324.195343	1102.846313	7229.239258	2708.292725	26.205410
324.566925	1101.061035	7372.160645	2742.813232	26.179655
324.938507	1099.189941	7509.081055	2775.182617	26.146976
325.310059	1099.964355	7620.814453	2802.454834	26.108414
325.681519	1099.663208	7736.399902	2831.684326	26.097481
326.052948	1098.802856	7852.091797	2855.171143	26.007599
326.424408	1094.458130	7916.723145	2872.291260	26.059278
326.795776	1097.275757	7936.703613	2876.829834	26.019049
327.167084	1095.705688	7906.787109	2867.194092	26.008915
327.538391	1093.490356	7825.529785	2842.954590	25.987135
327.909668	1095.296997	7721.903320	2813.918457	25.935167
328.280884	1095.813232	7621.073730	2787.313232	25.922337
328.652100	1096.802734	7529.922363	2763.955322	25.915150
329.023254	1097.856445	7453.332520	2743.393799	25.891645
329.394348	1098.200562	7390.443359	2728.682373	25.912571
329.765442	1097.834839	7310.196777	2709.755371	25.946983
330.136475	1098.351074	7226.937988	2688.591553	25.947914
330.507538	1099.878174	7159.510742	2669.707275	25.906340
330.878479	1097.619873	7106.687500	2660.587891	26.010160
331.249420	1098.673706	7078.705078	2654.501221	26.017046
331.620331	1097.168091	7080.082520	2653.726807	26.016729
331.991211	1096.092896	7099.223633	2658.867188	26.032654
332.362030	1094.716309	7135.120605	2668.481201	26.053967
332.732819	1093.877441	7177.190430	2677.815918	26.037432
333.103577	1092.888184	7218.851074	2684.117676	25.975174
333.474304	1093.103271	7245.328125	2690.204102	25.959728
333.845001	1093.103271	7266.728516	2693.946533	25.930361
334.215668	1095.318481	7282.107422	2701.259521	25.957584
334.586273	1096.221802	7310.819824	2706.399658	25.909605
334.956818	1097.490845	7336.048340	2712.658447	25.890081
335.327362	1096.437012	7358.523926	2716.852539	25.876606
335.697876	1099.534058	7373.127930	2722.853516	25.875431
336.068329	1099.964355	7380.677734	2725.111816	25.875204
336.438751	1099.964233	7374.892578	2724.165527	25.883982
336.809174	1103.233521	7369.923828	2725.456055	25.886431
337.179504	1103.018433	7381.000000	2731.521240	25.939911
337.549896	1103.469971	7413.283203	2738.360840	25.910288
337.920135	1105.814331	7465.849609	2754.664063	25.925167
338.290375	1104.115234	7520.394043	2768.794678	25.944624
338.660614	1103.835815	7566.679688	2782.172607	25.969013
339.030792	1104.975708	7605.523438	2793.443115	25.974232
339.400940	1107.556641	7646.431152	2803.379639	25.934479
339.771027	1106.309204	7679.596680	2811.703369	25.944311
340.141083	1106.825317	7714.590820	2822.780029	25.968760
340.511139	1107.965210	7751.798828	2835.039795	25.995152
340.881134	1105.642456	7796.600098	2846.288330	26.014900
341.251068	1105.599243	7825.829590	2852.525635	25.995037
341.621002	1104.373291	7840.841797	2861.795654	26.088184
341.990875	1101.233154	7849.101563	2864.656006	26.133036
342.360718	1099.964233	7858.995117	2864.118164	26.100695
342.730560	1100.136230	7879.062012	2871.344971	26.128162
343.100311	1097.834961	7921.325195	2882.335693	26.152315
343.470032	1097.383301	7984.279297	2900.939941	26.188236
343.839752	1097.125122	8068.074707	2925.136475	26.223276
344.209442	1098.028564	8161.526855	2952.000000	26.247213
344.579041	1096.523071	8264.938477	2981.422852	26.294510
344.948639	1095.813232	8365.853516	3015.384277	26.403858
345.318176	1098.845825	8455.262695	3050.011963	26.523321
345.687714	1098.286621	8552.909180	3072.939697	26.488976
346.057190	1098.200562	8625.068359	3092.834473	26.500185
346.426636	1100.136230	8678.581055	3113.332031	26.564762
346.796051	1099.297363	8703.013672	3122.881348	26.613092
347.165405	1099.985596	8698.797852	3121.848633	26.607618
347.534729	1099.598633	8657.610352	3112.643555	26.634583
347.904083	1099.770752	8593.752930	3099.545166	26.685070
348.273315	1099.211426	8511.786133	3080.230713	26.725117
348.642517	1099.491089	8436.227539	3061.906006	26.747791
349.011719	1099.749146	8361.422852	3040.892822	26.731354
349.380890	1096.781006	8308.834961	3024.589844	26.730373
349.749969	1097.942505	8260.614258	3017.147705	26.794542
350.119049	1101.147217	8238.375977	3012.007568	26.773142
350.488098	1102.308716	8235.384766	3013.190430	26.789026
350.857117	1103.534668	8238.632813	3015.771729	26.800430
351.226074	1102.179565	8268.012695	3025.665039	26.842455
351.595001	1102.910889	8313.008789	3040.914307	26.879017
351.963867	1102.910889	8365.336914	3053.518066	26.858892
352.332764	1099.813721	8432.206055	3070.036621	26.870123
352.701538	1099.146973	8501.246094	3092.877930	26.934669
353.070343	1100.738525	8591.322266	3115.633545	26.899038
353.439056	1100.867676	8685.075195	3144.497559	26.945860
353.807770	1101.233276	8792.744141	3176.071045	26.975687
354.176453	1100.243896	8898.822266	3207.730713	27.023989
354.545105	1096.781128	9022.581055	3242.315674	27.070261
354.913666	1096.931641	9173.868164	3286.557861	27.109613
355.282227	1098.652344	9334.511719	3333.144287	27.131254
355.650757	1095.770264	9501.285156	3379.773438	27.172674
356.019226	1095.899292	9686.339844	3433.049072	27.206404
356.387695	1097.275757	9897.461914	3501.637695	27.321714
356.756104	1097.727417	10147.257813	3570.979736	27.330175
357.124451	1096.458496	10424.130859	3656.108643	27.441469
357.492828	1095.856201	10681.905273	3733.516357	27.515614
357.861084	1096.716553	10896.963867	3795.201660	27.534868
358.229401	1096.436890	11065.134766	3846.842285	27.590416
358.597595	1100.028687	11179.878906	3885.771729	27.636751
358.965759	1098.308105	11285.785156	3920.657715	27.704109
359.333923	1097.576904	11397.927734	3957.350586	27.763847
359.702057	1099.770630	11556.829102	4008.087646	27.811998
360.070129	1098.329590	11736.874023	4067.945068	27.913736
360.438141	1100.695435	11947.889648	4131.587402	27.941715
360.806122	1102.717163	12195.875977	4207.037598	27.984097
361.174133	1104.502441	12475.975586	4294.166992	28.049706
361.542053	1106.201660	12787.734375	4382.715332	28.048660
361.909912	1104.782104	13059.295898	4467.263672	28.127296
362.277771	1104.072266	13289.452148	4537.185547	28.174036
362.645599	1102.523560	13435.535156	4580.503418	28.200573
363.013367	1101.684937	13487.328125	4601.989258	28.260979
363.381134	1101.878540	13454.527344	4596.332520	28.289108
363.748810	1100.824707	13341.522461	4568.372070	28.328022
364.116455	1101.792480	13151.778320	4516.559082	28.338345
364.484100	1100.136353	12877.100586	4434.678223	28.314106
364.851715	1097.426270	12500.042969	4325.804688	28.312609
365.219238	1095.641113	12017.209961	4186.239258	28.298117
365.586761	1094.071167	11496.714844	4042.071045	28.338951
365.954224	1092.587036	11045.755859	3915.388428	28.360830
366.321686	1092.113770	10687.518555	3813.139160	28.357590
366.689117	1093.275269	10452.758789	3750.270996	28.388271
367.056458	1096.824097	10290.286133	3701.103760	28.327520
367.423737	1097.533936	10172.636719	3669.615723	28.342178
367.791077	1098.630859	10063.891602	3640.881104	28.356680
368.158295	1099.362061	9978.162109	3617.824463	28.364897
368.525543	1099.899658	9899.936523	3598.209473	28.389765
368.892700	1102.222534	9826.788086	3582.057129	28.423588
369.259827	1103.233521	9775.147461	3567.904785	28.421309
369.626953	1104.567017	9742.949219	3561.301514	28.439753
369.994019	1105.083130	9712.256836	3552.827393	28.438419
370.361053	1105.814453	9696.125977	3550.698242	28.460945
370.728027	1104.201294	9690.146484	3550.439941	28.491199
371.094971	1102.545166	9704.665039	3556.010254	28.521633
371.461914	1099.792114	9732.152344	3561.602539	28.518394
371.828796	1099.964355	9764.951172	3572.399902	28.533634
372.195618	1099.383545	9808.225586	3585.713135	28.549486
372.562408	1099.598633	9839.046875	3597.521240	28.582155
372.929199	1098.867310	9875.116211	3611.845459	28.633850
373.295898	1096.544434	9908.454102	3626.900879	28.715187
373.662598	1097.576782	9953.125977	3641.806152	28.730343
374.029236	1098.093018	9996.227539	3657.249023	28.760590
374.395844	1098.802856	10033.027344	3674.519775	28.829775
374.762421	1100.566528	10077.097656	3686.026611	28.802439
375.128967	1099.555542	10134.545898	3708.695557	28.878174
375.495483	1103.448608	10215.415039	3737.839600	28.911333
375.861908	1101.125854	10344.572266	3781.758789	29.000360
376.228333	1100.609497	10513.862305	3835.873291	29.057581
376.594727	1098.265137	10751.439453	3911.129883	29.139275
376.961090	1097.770386	11016.181641	3992.150879	29.181896
377.327393	1101.211792	11269.352539	4073.042725	29.226889
377.693665	1099.620117	11461.527344	4135.201172	29.295582
378.059906	1100.243896	11601.781250	4184.841309	29.372818
378.426086	1101.190186	11685.490234	4213.898438	29.408731
378.792267	1100.781494	11717.967773	4233.621582	29.507254
379.158386	1100.200806	11706.439453	4237.707520	29.581711
379.524445	1098.006958	11674.457031	4237.255859	29.681499
379.890503	1099.964233	11605.610352	4222.931641	29.726561
380.256531	1100.996582	11494.047852	4197.681641	29.795727
380.622467	1102.953857	11331.468750	4156.515137	29.853418
380.988403	1103.255005	11130.669922	4107.541016	29.960724
381.354279	1101.104126	10936.257813	4059.018799	30.074921
381.720154	1099.426636	10784.260742	4018.906494	30.144863
382.085968	1100.738525	10692.442383	3994.882080	30.173403
382.451752	1099.491089	10663.148438	3994.925049	30.275385
382.817474	1100.028809	10677.924805	4007.442871	30.355455
383.183197	1101.512939	10747.503906	4033.983643	30.400927
383.548859	1101.211792	10817.749023	4069.192139	30.545660
383.914490	1099.491211	10895.329102	4098.744141	30.617624
384.280060	1099.276123	10966.520508	4132.081543	30.736094
384.645599	1098.802856	11036.163086	4168.129395	30.886740
385.011108	1096.781128	11120.754883	4204.994141	31.007792
385.376617	1095.426147	11219.089844	4243.945313	31.100588
385.742035	1095.684082	11332.500977	4291.779297	31.221575
386.107452	1093.361328	11437.826172	4341.376953	31.398586
386.472778	1093.210815	11530.417969	4382.585938	31.515854
386.838135	1090.823364	11626.559570	4430.291016	31.696577
387.203430	1090.328735	11692.825195	4468.791016	31.864782
387.568634	1089.446777	11741.561523	4499.181641	32.009933
387.933838	1091.296509	11771.308594	4532.410645	32.220135
388.299042	1091.855713	11806.624023	4563.533203	32.400864
388.664124	1089.403809	11833.939453	4585.320313	32.536694
389.029236	1092.931152	11843.661133	4606.914551	32.685997
389.394318	1094.114136	11856.931641	4629.304199	32.846325
389.759308	1094.157104	11859.254883	4651.027832	33.040764
390.124298	1094.415161	11897.474609	4680.944824	33.199203
390.489227	1096.178833	11985.441406	4735.382324	33.420109
390.854126	1096.350830	12100.639648	4796.249512	33.622334
391.218964	1097.748901	12246.528320	4868.538086	33.822437
391.583771	1097.641479	12404.568359	4945.128418	34.027699
391.948578	1094.372192	12542.930664	5012.039551	34.219746
392.313354	1092.436401	12655.502930	5070.606445	34.404110
392.678040	1094.522705	12759.365234	5128.613770	34.583328
393.042694	1091.554565	12871.121094	5189.115723	34.785332
393.407349	1093.705322	12997.244141	5254.671875	34.955711
393.771942	1094.630371	13137.218750	5329.369629	35.164696
394.136505	1093.985107	13233.640625	5390.043457	35.388638
394.501007	1091.145996	13250.416016	5417.315918	35.579193
394.865479	1092.113770	13191.269531	5414.391113	35.723793
395.229919	1090.715820	13059.208984	5389.334473	35.916122
395.594360	1094.264771	12900.953125	5359.137207	36.122513
395.958710	1098.007080	12755.558594	5324.509277	36.255486
396.323029	1098.953491	12622.725586	5295.387207	36.415451
396.687286	1099.254517	12495.181641	5271.211914	36.609200
397.051544	1100.932129	12373.447266	5242.843262	36.743450
397.415771	1098.888794	12218.524414	5210.042969	36.972023
397.779938	1099.426636	12045.384766	5167.069824	37.161144
398.144043	1100.803101	11876.718750	5126.527344	37.358532
398.508148	1099.383545	11731.345703	5090.695313	37.540688
398.872192	1099.039429	11617.761719	5073.531738	37.784931
399.236237	1099.297485	11542.204102	5065.638672	37.981201
399.600189	1097.060669	11490.456055	5057.594238	38.106255
399.964111	1095.920776	11451.311523	5063.079102	38.310078
400.328003	1094.866943	11420.555664	5077.403809	38.569214
400.691925	1093.081787	11410.338867	5093.061523	38.769798
401.055695	1093.554932	11395.217773	5112.354004	39.011169
401.419495	1093.404297	11390.186523	5132.592773	39.227676
401.783234	1092.522583	11416.532227	5159.025391	39.388794
402.146942	1093.490356	11432.211914	5187.072754	39.594669
402.510620	1096.071167	11475.981445	5228.131348	39.808247
402.874237	1096.910034	11545.322266	5275.277344	39.990452
403.237823	1097.942505	11646.604492	5337.113281	40.186810
403.601379	1097.899536	11783.717773	5417.079590	40.419743
403.964874	1097.598389	11953.416016	5507.692871	40.624252
404.328369	1098.845825	12137.160156	5604.973633	40.822609
404.691772	1101.899902	12298.964844	5692.834473	41.001232
405.055176	1100.394409	12461.372070	5776.629395	41.160496
405.418549	1100.760010	12608.122070	5853.176758	41.298927
405.781860	1100.953613	12710.436523	5918.884277	41.499962
406.145142	1100.372925	12804.383789	5974.955078	41.648819
406.508362	1096.910034	12858.259766	6014.702637	41.813164
406.871552	1096.071289	12872.971680	6040.146484	41.981125
407.234741	1095.533569	12855.744141	6054.341797	42.165977
407.597870	1096.286377	12795.436523	6049.889160	42.341557
407.960938	1099.082397	12714.909180	6036.081055	42.502342
408.323975	1098.759766	12628.490234	6011.690918	42.610981
408.686981	1099.318970	12567.297852	6001.194824	42.744030
409.049957	1099.405029	12529.293945	6004.076660	42.910934
409.412903	1100.050293	12531.552734	6020.853516	43.045990
409.775787	1099.942749	12562.309570	6052.878418	43.210407
410.138611	1100.652466	12608.766602	6090.689453	43.361031
410.501434	1103.900269	12662.795898	6136.501953	43.538776
410.864227	1104.609985	12703.165039	6172.398926	43.693279
411.226929	1104.502441	12739.277344	6201.262695	43.806263
411.589630	1104.696045	12787.863281	6234.879883	43.910900
411.952271	1103.835815	12802.446289	6255.872070	44.039726
412.314911	1103.083008	12808.704102	6279.831543	44.224468
412.677490	1101.577393	12819.889648	6298.586426	44.349464
413.040009	1104.545532	12832.342773	6312.051270	44.403103
413.402496	1102.523682	12817.157227	6319.814453	44.536526
413.764984	1102.652832	12790.637695	6313.298828	44.581219
414.127380	1100.953613	12777.344727	6314.008301	44.646114
414.489777	1100.329956	12783.412109	6320.632813	44.682583
414.852112	1101.104248	12831.394531	6348.593262	44.734524
415.214386	1100.932129	12908.696289	6383.909668	44.741558
415.576660	1100.222290	13008.063477	6432.409668	44.778793
415.938904	1098.695190	13161.844727	6502.353516	44.794754
416.301086	1101.211792	13343.672852	6572.104980	44.687855
416.663208	1101.512817	13534.774414	6657.879395	44.689533
417.025299	1097.964111	13747.102539	6757.353516	44.741306
417.387390	1097.641479	13993.647461	6865.367188	44.724899
417.749420	1097.383301	14281.855469	7000.501465	44.773258
418.111389	1097.576904	14608.261719	7147.529785	44.779026
418.473328	1096.738037	14982.374023	7309.378418	44.741493
418.835266	1094.673340	15378.788086	7487.314453	44.753498
419.197144	1096.781128	15816.389648	7696.587891	44.836834
419.558960	1096.092896	16293.288086	7915.151855	44.870510
419.920746	1095.684204	16814.921875	8167.376465	44.987503
420.282471	1095.899292	17418.888672	8457.971680	45.102474
420.644226	1094.608887	18049.289063	8756.073242	45.187904
421.005920	1092.393433	18652.761719	9049.164063	45.310951
421.367523	1092.909668	19205.388672	9320.617188	45.425629
421.729126	1092.436401	19689.105469	9563.788086	45.553055
422.090668	1091.640503	20103.029297	9783.707031	45.720314
422.452179	1092.414917	20437.283203	9978.311523	45.934124
422.813660	1092.156860	20766.935547	10164.635742	46.112225
423.175110	1089.382324	21078.695313	10339.216797	46.273899
423.536469	1089.016724	21354.472656	10501.300781	46.444969
423.897858	1088.328369	21574.929688	10636.415039	46.606495
424.259155	1086.242065	21651.544922	10710.037109	46.796272
424.620453	1086.134644	21666.791016	10765.893555	47.033287
424.981689	1091.188965	21630.486328	10783.789063	47.190514
425.342865	1092.092285	21562.048828	10791.746094	47.384830
425.704041	1091.769653	21472.617188	10780.046875	47.536186
426.065186	1093.769775	21369.960938	10757.204102	47.659023
426.426239	1094.565674	21230.953125	10708.661133	47.744888
426.787262	1096.522949	20996.988281	10622.607422	47.868652
427.148254	1096.888672	20678.130859	10486.891602	47.954071
427.509216	1098.028442	20293.246094	10320.461914	48.045479
427.870178	1098.222046	19842.652344	10111.317383	48.084129
428.231049	1097.942383	19410.876953	9907.270508	48.104408
428.591858	1100.179321	18984.113281	9697.911133	48.075169
428.952698	1098.910278	18575.439453	9509.823242	48.126907
429.313446	1099.189941	18204.597656	9321.821289	48.070358
429.674164	1101.985962	17855.242188	9154.875977	48.067612
430.034851	1101.147217	17533.355469	9000.405273	48.071796
430.395477	1100.244019	17253.707031	8862.172852	48.051174
430.756104	1099.297607	17029.400391	8755.062500	48.058475
431.116699	1097.297241	16851.013672	8675.311523	48.103024
431.477203	1095.727295	16712.544922	8614.917969	48.148033
431.837646	1097.318848	16644.773438	8589.215820	48.187286
432.198090	1098.243652	16616.832031	8591.324219	48.284550
432.558502	1095.619629	16627.585938	8606.228516	48.355812
432.918884	1095.641113	16653.998047	8630.209961	48.427792
433.279205	1094.049561	16710.177734	8683.141602	48.597782
433.639465	1093.533325	16786.314453	8741.341797	48.734566
433.999756	1095.060425	16865.056641	8806.081055	48.896782
434.359924	1097.211182	16953.216797	8877.938477	49.071171
434.720093	1097.899536	17034.044922	8937.429688	49.193390
435.080200	1099.641602	17095.513672	8994.188477	49.353649
435.440277	1101.211670	17160.146484	9054.002930	49.522533
435.800354	1099.275879	17185.830078	9112.183594	49.811211
436.160370	1097.340210	17192.820313	9151.886719	50.042286
436.520325	1099.189819	17192.820313	9191.785156	50.284458
436.880249	1098.265137	17205.078125	9228.562500	50.477383
437.240112	1098.050171	17215.617188	9266.008789	50.677364
437.599976	1098.265137	17262.482422	9315.110352	50.833553
437.959808	1097.662964	17333.457031	9382.066406	51.025551
438.319519	1096.350952	17413.857422	9458.075195	51.243885
438.679260	1091.145996	17536.646484	9557.097656	51.478832
439.038940	1092.586914	17707.978516	9687.458984	51.728378
439.398590	1092.414795	17931.275391	9833.584961	51.910694
439.758179	1092.866577	18226.859375	10008.746094	52.036209
440.117767	1095.124878	18574.494141	10217.997070	52.192226
440.477295	1095.490601	18934.453125	10440.777344	52.386940
440.836792	1095.920776	19279.357422	10662.954102	52.613998
441.196198	1098.867310	19575.050781	10851.171875	52.783112
441.555603	1098.544800	19804.392578	11011.902344	52.996033
441.914978	1098.265137	19959.164063	11128.926758	53.182312
442.274323	1098.738403	20082.167969	11221.498047	53.324188
442.633575	1103.728149	20140.388672	11286.086914	53.488155
442.992859	1103.685181	20138.429688	11311.250977	53.625965
443.352051	1103.384033	20087.412109	11309.766602	53.763000
443.711182	1105.491943	19969.117188	11277.418945	53.923500
444.070313	1103.921753	19825.337891	11226.788086	54.071049
444.429382	1103.771240	19678.630859	11167.964844	54.181801
444.788452	1103.448608	19573.458984	11131.098633	54.291527
445.147430	1101.641968	19542.746094	11146.284180	54.468773
445.506409	1097.963989	19594.320313	11194.376953	54.585960
445.865295	1094.264771	19736.939453	11288.797852	54.683857
446.224182	1092.888184	19956.279297	11426.878906	54.783314
446.583038	1093.899048	20226.097656	11589.973633	54.860783
446.941833	1092.630005	20505.294922	11755.047852	54.925064
447.300598	1093.597778	20762.875000	11921.347656	55.049049
447.659302	1091.877197	20991.054688	12060.011719	55.118534
448.018005	1093.791504	21158.558594	12164.194336	55.173340
448.376648	1093.597900	21260.806641	12241.453125	55.277134
448.735229	1096.652100	21288.230469	12266.380859	55.318748
449.093781	1098.157715	21246.203125	12249.840820	55.348713
449.452301	1100.308350	21122.595703	12188.928711	55.381386
449.810791	1103.577759	20923.970703	12092.444336	55.442223
450.169220	1103.900269	20623.998047	11938.553711	55.505119
450.527618	1102.373169	20295.289063	11765.758789	55.558968
450.885956	1103.706665	20003.423828	11605.996094	55.568501
451.244263	1103.771118	19716.507813	11451.355469	55.594105
451.602539	1104.781982	19494.673828	11336.222656	55.636215
451.960785	1104.480835	19310.414063	11245.672852	55.702679
452.318970	1108.094238	19172.310547	11169.105469	55.695808
452.677124	1104.609863	19023.412109	11098.407227	55.772682
453.035248	1104.222778	18869.242188	11019.881836	55.815639
453.393311	1105.599243	18696.167969	10942.711914	55.922653
453.751312	1104.695923	18529.070313	10853.258789	55.947845
454.109314	1107.212402	18388.814453	10781.702148	55.981445
454.467285	1109.169800	18245.613281	10706.746094	56.006817
454.825195	1108.739502	18072.367188	10624.284180	56.093811
455.183044	1109.943848	17904.023438	10539.930664	56.150658
455.540894	1106.545654	17691.955078	10427.313477	56.198597
455.898651	1106.674683	17504.232422	10324.010742	56.211636
456.256378	1101.856934	17306.982422	10221.631836	56.277107
456.614105	1103.061401	17179.052734	10148.225586	56.265049
456.971771	1104.050781	17093.775391	10100.951172	56.266762
457.329407	1101.749512	17093.128906	10094.003906	56.231884
457.686981	1101.684814	17167.417969	10145.515625	56.292675
458.044525	1099.598633	17346.685547	10251.743164	56.330986
458.402008	1099.189941	17633.281250	10415.935547	56.348701
458.759460	1098.458618	18066.625000	10664.890625	56.378700
459.116913	1096.329468	18630.761719	10986.371094	56.403549
459.474274	1098.286621	19308.283203	11361.944336	56.362770
459.831635	1098.630859	19928.597656	11705.191406	56.328091
460.188904	1098.738403	20480.904297	12014.886719	56.320580
460.546173	1098.587769	20918.871094	12272.594727	56.376625
460.903381	1097.684448	21253.000000	12457.478516	56.361279
461.260559	1098.093262	21482.876953	12590.571289	56.377731
461.617706	1101.082764	21610.376953	12656.944336	56.344509
461.974762	1100.803101	21586.716797	12637.889648	56.317169
462.331848	1099.017822	21431.537109	12547.855469	56.308014
462.688843	1099.856812	21097.753906	12359.832031	56.305801
463.045837	1099.856812	20608.511719	12087.153320	56.320118
463.402740	1100.028931	20001.488281	11754.359375	56.367767
463.759613	1098.759888	19425.611328	11443.266602	56.444538
464.116486	1099.017944	18915.269531	11168.868164	56.520588
464.473267	1100.222290	18506.187500	10937.397461	56.516113
464.830048	1099.899658	18187.908203	10769.721680	56.588352
465.186737	1101.491333	17932.179688	10623.509766	56.575340
465.543457	1098.910522	17749.082031	10521.518555	56.591660
465.900085	1096.135864	17683.847656	10492.870117	56.648769
466.256683	1093.877563	17708.130859	10513.129883	56.693802
466.613251	1093.081665	17779.880859	10547.972656	56.660900
466.969757	1092.156738	17868.923828	10598.560547	56.664101
467.326233	1092.974121	17954.439453	10651.255859	56.687134
467.682678	1093.468750	18007.349609	10682.892578	56.695587
468.039093	1094.329102	18032.878906	10685.474609	56.623177
468.395416	1091.554688	18023.759766	10676.806641	56.609589
468.751740	1089.511353	18002.896484	10661.922852	56.596661
469.108032	1089.511353	17967.236328	10654.116211	56.669987
469.464233	1089.877075	17925.876953	10630.542969	56.668247
469.820435	1095.770264	17833.671875	10581.139648	56.669998
470.176575	1097.533936	17685.136719	10492.655273	56.639412
470.532715	1099.340576	17518.494141	10412.601563	56.721928
470.888763	1103.470093	17376.755859	10331.344727	56.705666
471.244751	1103.190430	17260.076172	10257.421875	56.658390
471.600769	1103.534668	17199.617188	10221.202148	56.645264
471.956696	1104.029297	17199.033203	10225.913086	56.675251
472.312592	1104.717651	17266.589844	10272.347656	56.723812
472.668457	1105.964966	17356.882813	10337.410156	56.805687
473.024292	1107.126465	17486.939453	10407.139648	56.777290
473.380035	1106.954468	17572.779297	10471.018555	56.869698
473.735779	1106.007935	17660.789063	10528.230469	56.915417
474.091492	1104.953979	17747.638672	10592.043945	57.004562
474.447113	1102.179565	17866.193359	10661.665039	57.023846
474.802765	1098.394165	17964.505859	10734.018555	57.130085
475.158295	1098.587769	18087.423828	10824.373047	57.248096
475.513824	1099.491089	18213.548828	10911.954102	57.335686
475.869324	1098.114624	18362.341797	11009.364258	57.409176
476.224762	1098.781372	18489.732422	11092.750977	57.466492
476.580170	1100.007202	18638.607422	11185.020508	57.501820
476.935516	1099.082397	18791.574219	11292.990234	57.617142
477.290863	1099.469604	19031.796875	11433.200195	57.626263
477.646118	1096.867065	19283.615234	11591.435547	57.704479
478.001373	1097.533936	19573.435547	11767.607422	57.751297
478.356537	1098.609253	19855.857422	11941.887695	57.808472
478.711700	1100.501953	20156.970703	12127.975586	57.867352
479.066833	1099.254395	20462.707031	12311.633789	57.904854
479.421875	1097.555298	20789.414063	12511.831055	57.964436
479.776917	1098.544678	21111.562500	12723.684570	58.087891
480.131897	1098.222046	21482.617188	12956.358398	58.172623
480.486847	1097.146606	21913.056641	13224.799805	58.261459
480.841766	1098.781372	22435.853516	13544.646484	58.329769
481.196594	1098.953491	23050.208984	13919.790039	58.405937
481.551453	1098.093262	23857.900391	14401.936523	58.453236
481.906219	1095.211060	24897.945313	15045.735352	58.608913
482.260986	1094.479736	26347.199219	15949.008789	58.823486
482.615662	1092.135254	28416.939453	17239.039063	59.092480
482.970306	1093.640991	31148.205078	19036.035156	59.699398
483.324951	1093.619385	34243.640625	21232.177734	60.749763
483.679504	1092.673096	37399.925781	23549.539063	61.852283
484.034027	1092.113892	40339.859375	25646.468750	62.562462
484.388519	1091.597656	42912.027344	27389.500000	62.882908
484.742981	1089.898560	45000.953125	28770.662109	63.038258
485.097351	1088.586426	46633.558594	29830.707031	63.107121
485.451721	1092.759033	47805.765625	30620.804688	63.211613
485.806030	1096.501465	48616.898438	31180.080078	63.306664
486.160309	1096.114258	49095.046875	31535.886719	63.417603
486.514557	1098.135986	49099.496094	31609.787109	63.564137
486.868744	1098.265137	48648.539063	31336.892578	63.592960
487.222931	1097.856567	47882.898438	30712.861328	63.300152
487.577026	1099.168579	46976.785156	29913.189453	62.806274
487.931122	1100.071777	46097.984375	29224.976563	62.502686
488.285126	1101.964478	45262.703125	28668.775391	62.423798
488.639099	1103.642090	44510.371094	28226.617188	62.485641
488.993042	1103.706543	43848.421875	27893.349609	62.673580
489.346954	1101.727905	43273.769531	27609.123047	62.855373
489.700836	1102.609741	42718.285156	27328.355469	63.018913
490.054626	1103.233521	42111.195313	27018.744141	63.196289
490.408417	1100.889160	41562.910156	26730.173828	63.341587
490.762146	1102.093628	41075.882813	26474.466797	63.472523
491.115814	1103.491577	40714.914063	26318.638672	63.656250
491.469513	1103.599121	40368.914063	26174.363281	63.849640
491.823090	1102.007324	39915.222656	25949.689453	64.018616
492.176666	1101.813965	39426.257813	25713.292969	64.218750
492.530182	1100.609375	38929.359375	25471.888672	64.425285
492.883698	1099.813721	38390.558594	25186.412109	64.591354
493.237091	1099.017944	37800.746094	24874.351563	64.779877
493.590515	1099.232910	37121.738281	24492.949219	64.941948
493.943878	1098.243652	36263.609375	23993.167969	65.106453
494.297150	1101.233276	35105.378906	23307.363281	65.304192
494.650452	1100.630981	33647.519531	22415.705078	65.490356
495.003662	1100.093262	31910.638672	21318.535156	65.621826
495.356873	1099.792114	30217.744141	20242.273438	65.741165
495.710022	1100.028687	28792.429688	19352.314453	65.910812
496.063110	1098.329590	27677.992188	18672.228516	66.117844
496.416168	1098.867188	26896.216797	18205.654297	66.312187
496.769165	1100.544922	26366.167969	17918.349609	66.563980
497.122162	1100.286865	26053.806641	17747.984375	66.714828
497.475098	1100.566528	25846.599609	17660.939453	66.921326
497.828003	1100.803223	25765.664063	17652.748047	67.107391
498.180847	1099.190063	25726.951172	17666.855469	67.272316
498.533661	1096.479980	25654.445313	17662.273438	67.455887
498.886444	1097.598267	25577.039063	17647.736328	67.608322
499.239136	1096.221802	25444.720703	17606.611328	67.808655
499.591827	1097.727417	25234.654297	17493.458984	67.928001
499.944427	1098.222168	24928.873047	17310.123047	68.029617
500.297089	1096.243286	24563.923828	17094.527344	68.171562
500.649628	1095.899292	24183.425781	16867.337891	68.311508
501.002136	1097.017700	23780.343750	16632.017578	68.486427
501.354584	1097.232788	23425.330078	16426.810547	68.655998
501.707001	1100.394409	23066.189453	16205.795898	68.767838
502.059387	1102.523804	22777.572266	16023.405273	68.838974
502.411682	1104.524048	22528.509766	15870.697266	68.923553
502.764038	1104.265747	22331.023438	15753.156250	69.011436
503.116302	1104.480957	22180.294922	15664.262695	69.082886
503.468475	1104.803589	22081.445313	15612.300781	69.160240
503.820709	1104.954102	22042.277344	15604.515625	69.252220
504.172852	1105.943481	22012.984375	15597.546875	69.314461
504.524902	1106.136963	22011.242188	15591.180664	69.289505
504.876953	1104.588379	22025.222656	15602.256836	69.298416
505.228912	1102.631226	22043.330078	15609.418945	69.275566
505.580872	1100.222290	22069.484375	15625.312500	69.268486
505.932770	1096.953125	22046.945313	15617.871094	69.312286
506.284698	1098.996460	22020.857422	15595.244141	69.287567
506.636505	1100.695557	22023.373047	15592.707031	69.264610
506.988342	1100.179443	22017.480469	15573.457031	69.192856
507.340088	1100.136353	22023.845703	15574.316406	69.175972
507.691772	1100.674072	22037.267578	15573.608398	69.127457
508.043396	1099.684692	22092.435547	15596.406250	69.055847
508.395050	1100.308472	22172.833984	15635.271484	68.975891
508.746582	1101.555786	22285.621094	15704.053711	68.931519
509.098114	1101.039551	22428.003906	15777.761719	68.817680
509.449646	1099.405151	22588.648438	15866.331055	68.717751
509.801086	1100.200806	22787.533203	15972.128906	68.574265
510.152557	1097.447754	22997.281250	16088.274414	68.451782
510.503906	1094.909790	23199.820313	16192.952148	68.301758
510.855194	1096.114136	23391.392578	16304.512695	68.213539
511.206482	1096.028076	23587.716797	16403.451172	68.058128
511.557709	1094.587158	23787.632813	16515.421875	67.954018
511.908844	1096.458496	23983.898438	16616.660156	67.810997
512.260010	1095.275513	24123.050781	16684.560547	67.697746
512.611206	1094.415161	24226.591797	16716.371094	67.533447
512.962219	1096.178711	24295.806641	16734.759766	67.408752
513.313232	1099.512573	24345.337891	16740.697266	67.285988
513.664246	1099.899780	24347.125000	16717.017578	67.178421
514.015137	1101.663330	24320.863281	16667.076172	67.036819
514.366028	1103.362549	24279.220703	16612.490234	66.919327
514.716919	1103.319458	24214.181641	16524.048828	66.725029
515.067688	1103.706665	24113.310547	16428.531250	66.601860
515.418396	1106.158569	24022.310547	16325.356445	66.412537
515.769104	1105.857422	23951.248047	16239.946289	66.245697
516.119812	1105.857544	23936.923828	16193.252930	66.082748
516.470459	1104.136719	24019.449219	16194.093750	65.850975
516.821106	1103.943237	24165.898438	16251.261719	65.680984
517.171631	1102.631348	24438.595703	16390.376953	65.511520
517.522095	1104.072266	24824.949219	16587.863281	65.274948
517.872559	1101.104126	25355.875000	16875.060547	65.034447
518.222961	1099.491089	25922.587891	17184.195313	64.797325
518.573364	1099.878296	26497.068359	17492.425781	64.544731
518.923645	1097.447876	27009.025391	17766.246094	64.329536
519.273987	1095.813232	27444.949219	17987.238281	64.106186
519.624207	1095.017334	27744.255859	18121.900391	63.892567
519.974487	1094.845215	27967.314453	18210.986328	63.693966
520.324646	1097.146606	28054.812500	18223.419922	63.530254
520.674744	1099.426392	28052.123047	18161.886719	63.305206
521.024780	1100.351196	27905.179688	18011.632813	63.090431
521.374878	1100.415771	27644.673828	17792.742188	62.884884
521.724792	1102.588013	27274.068359	17506.255859	62.677647
522.074707	1100.544800	26863.738281	17197.378906	62.479965
522.424744	1100.136230	26471.169922	16912.095703	62.322880
522.774536	1100.265381	26182.986328	16671.658203	62.080158
523.124329	1099.082520	25963.087891	16473.955078	61.835865
523.474182	1100.846191	25892.238281	16368.092773	61.582851
523.823914	1101.426880	25940.138672	16345.443359	61.372013
524.173523	1102.029175	26151.929688	16405.539063	61.092098
524.523132	1100.588013	26546.710938	16577.300781	60.821495
524.872803	1100.007324	27100.238281	16836.515625	60.524494
525.222290	1098.544678	27838.675781	17218.691406	60.284470
525.571777	1098.695190	28641.482422	17645.669922	60.077343
525.921326	1100.544800	29516.044922	18093.318359	59.801071
526.270752	1100.996582	30439.126953	18586.304688	59.599258
526.620178	1103.706543	31463.101563	19127.939453	59.369537
526.969482	1103.663574	32721.966797	19819.919922	59.194374
527.318787	1102.416138	34311.453125	20713.876953	59.054596
527.668030	1102.416138	36333.511719	21900.390625	59.033009
528.017212	1100.588013	38582.175781	23317.017578	59.272919
528.366394	1098.243652	40807.421875	24755.755859	59.576935
528.715515	1099.964233	42803.152344	25992.638672	59.690098
529.064636	1102.201050	44375.453125	26907.505859	59.633381
529.413635	1101.125732	45543.597656	27540.423828	59.491062
529.762695	1100.652466	46308.406250	27922.470703	59.330128
530.111633	1098.028442	46743.621094	28083.525391	59.119610
530.460510	1096.415405	46786.746094	28027.669922	58.943005
530.809387	1096.996216	46388.996094	27701.779297	58.740578
531.158142	1095.017456	45484.238281	27080.349609	58.539734
531.506958	1094.006470	44063.546875	26102.443359	58.200386
531.855652	1096.759521	42402.140625	24880.501953	57.580250
532.204407	1096.049683	40807.140625	23665.619141	56.834427
532.552979	1095.081909	39555.570313	22709.607422	56.199299
532.901611	1093.963379	38680.625000	22042.386719	55.733665
533.250183	1090.522217	38107.992188	21579.167969	55.348587
533.598755	1091.511597	37671.503906	21234.564453	55.065765
533.947205	1093.834473	37317.117188	20944.230469	54.800106
534.295593	1093.770020	37026.246094	20698.027344	54.558605
534.643982	1093.146362	36790.921875	20495.851563	54.352699
534.992249	1098.329590	36565.519531	20304.279297	54.151310
535.340576	1099.211426	36345.882813	20104.595703	53.921078
535.688843	1096.867065	36093.421875	19899.044922	53.725796
536.037048	1098.351074	35689.480469	19604.666016	53.500175
536.385315	1097.727417	35053.160156	19175.279297	53.239056
536.733398	1093.404297	34230.691406	18636.353516	52.940205
537.081421	1097.963989	33336.515625	18079.380859	52.674255
537.429443	1098.781372	32512.695313	17566.175781	52.420704
537.777466	1099.964233	31796.349609	17121.755859	52.194393
538.125427	1099.491089	31195.392578	16751.623047	52.007519
538.473267	1100.652466	30718.154297	16443.070313	51.801865
538.821167	1096.157349	30342.189453	16179.594727	51.574306
539.169006	1093.490356	30042.281250	15959.740234	51.353611
539.516846	1095.404541	29785.906250	15769.219727	51.145203
539.864502	1094.393677	29725.533203	15666.800781	50.897057
540.212219	1093.597778	29960.894531	15712.183594	50.640648
540.559875	1096.415527	30618.244141	15979.852539	50.415028
540.907410	1095.189453	31609.419922	16413.367188	50.200111
541.254944	1091.812866	32749.218750	16928.376953	50.024834
541.602478	1088.629517	33840.988281	17404.027344	49.814419
541.949951	1091.081543	34812.960938	17820.724609	49.610649
542.297363	1090.995483	35665.558594	18175.867188	49.414570
542.644714	1090.952393	36393.113281	18468.935547	49.226398
542.992126	1094.909912	36898.488281	18656.507813	49.049839
543.339355	1094.909912	37133.890625	18708.082031	48.872559
543.686646	1095.641113	36962.300781	18568.751953	48.716862
544.033813	1096.028320	36350.503906	18208.279297	48.539227
544.380920	1098.544800	35273.101563	17614.357422	48.327801
544.728027	1098.157593	33893.148438	16877.683594	48.115658
545.075134	1099.577026	32485.080078	16112.964844	47.835419
545.422180	1102.609741	31191.500000	15424.234375	47.597717
545.769165	1100.136230	30101.513672	14839.709961	47.375591
546.116150	1101.512695	29163.873047	14326.097656	47.125706
546.463013	1103.620605	28333.876953	13872.687500	46.892937
546.809875	1101.147095	27652.351563	13488.359375	46.654049
547.156677	1100.222290	27041.158203	13143.285156	46.424934
547.503418	1099.340576	26523.564453	12837.505859	46.169216
547.850098	1099.555664	26053.443359	12574.999023	45.986599
548.196777	1099.060913	25603.150391	12324.152344	45.809055
548.543396	1099.684448	25154.019531	12072.377930	45.616280
548.890015	1099.921143	24654.173828	11795.612305	45.408749
549.236633	1099.577026	24106.105469	11502.349609	45.216610
549.583069	1099.383545	23500.394531	11181.686523	45.008247
549.929504	1100.953613	22837.970703	10840.762695	44.807476
550.275879	1100.846191	22184.296875	10503.925781	44.599339
550.622253	1102.136597	21534.345703	10175.068359	44.405045
550.968567	1102.953979	20971.779297	9882.019531	44.185123
551.314819	1105.255249	20489.205078	9626.074219	43.958118
551.661072	1104.029297	20128.861328	9419.942383	43.710835
552.007263	1102.029175	19904.488281	9271.836914	43.450741
552.353394	1103.190430	19757.716797	9164.941406	43.216057
552.699524	1104.480957	19663.253906	9084.523438	42.998760
553.045593	1102.373169	19617.462891	9028.559570	42.809334
553.391602	1104.631470	19596.880859	8979.909180	42.586910
553.737549	1101.168579	19576.876953	8937.752930	42.415607
554.083435	1101.770996	19533.453125	8879.250977	42.196259
554.429321	1103.706543	19478.607422	8817.244141	41.978664
554.775146	1101.942993	19381.414063	8744.999023	41.812241
555.120972	1101.018188	19274.023438	8666.750977	41.631710
555.466675	1102.115112	19112.755859	8568.803711	41.457096
555.812439	1104.222900	18910.880859	8454.917969	41.280602
556.158081	1103.556274	18680.765625	8321.267578	41.062897
556.503662	1102.824829	18449.339844	8186.434082	40.835922
556.849182	1104.739136	18225.054688	8059.300293	40.621685
557.194702	1103.061401	18018.554688	7945.651367	40.451611
557.540161	1104.588501	17818.185547	7840.778320	40.303650
557.885620	1104.330322	17654.017578	7747.347168	40.139832
558.231018	1102.050537	17501.242188	7654.539551	39.956173
558.576355	1100.265381	17381.789063	7575.067383	39.767788
558.921692	1102.115112	17289.044922	7507.790527	39.573135
559.266968	1101.985962	17192.560547	7446.126953	39.427685
559.612183	1100.007324	17111.517578	7389.409668	39.280506
559.957336	1100.157837	17059.187500	7346.910645	39.142437
560.302429	1099.211426	17023.355469	7313.035645	39.021400
560.647522	1098.673706	17005.095703	7289.892578	38.922764
560.992554	1097.211182	16996.341797	7255.049805	38.730663
561.337524	1097.168213	17005.804688	7229.046875	38.544338
561.682434	1095.275513	17022.130859	7208.011230	38.380054
562.027344	1095.662720	17028.236328	7189.622070	38.248432
562.372253	1099.039307	17038.152344	7168.931152	38.081741
562.717102	1099.189941	17022.064453	7155.037109	38.032372
563.061829	1097.813354	17045.335938	7133.529297	37.847359
563.406494	1096.974609	17039.208984	7112.149902	37.731068
563.751160	1093.253784	17025.033203	7087.415527	37.623932
564.095825	1093.963501	17028.648438	7070.402832	37.505852
564.440369	1093.060059	17044.304688	7047.517578	37.329109
564.784973	1095.146362	17087.515625	7045.087891	37.204880
565.129456	1094.329224	17191.763672	7063.348633	37.080563
565.473877	1093.705444	17318.017578	7096.793457	37.000568
565.818298	1091.167480	17494.449219	7151.359375	36.944996
566.162659	1090.801880	17690.904297	7213.366699	36.882694
566.507019	1087.661621	17885.035156	7262.168457	36.758766
566.851196	1090.844849	18033.029297	7303.894043	36.672070
567.195435	1090.930786	18181.650391	7338.070313	36.552818
567.539612	1094.350586	18281.232422	7360.331543	36.457924
567.883789	1093.038574	18350.337891	7366.740723	36.353905
568.227844	1094.350708	18373.931641	7366.719238	36.299313
568.571960	1094.243042	18368.382813	7356.976074	36.254959
568.915955	1094.888306	18297.125000	7317.938965	36.175823
569.259888	1096.587402	18214.556641	7273.890625	36.086658
569.603821	1099.405151	18094.542969	7213.023438	35.972748
569.947632	1099.426514	17961.880859	7146.734863	35.862564
570.291504	1100.544922	17867.480469	7093.588867	35.743229
570.635193	1097.146606	17825.111328	7065.391113	35.678246
570.979004	1099.275879	17849.824219	7057.562500	35.570694
571.322632	1100.695435	17954.826172	7078.253418	35.466427
571.666321	1101.190186	18077.617188	7115.849609	35.429474
572.009949	1102.072021	18221.482422	7144.992676	35.298653
572.353455	1102.566772	18347.908203	7170.114258	35.183689
572.696960	1101.254761	18457.728516	7194.805176	35.108227
573.040405	1099.146973	18533.201172	7211.216797	35.058224
573.383850	1098.587769	18599.574219	7220.937500	34.982883
573.727173	1099.297607	18644.417969	7226.637207	34.923325
574.070557	1099.577148	18657.710938	7228.529785	34.906631
574.413879	1100.953735	18657.667969	7215.710938	34.828598
574.757019	1099.813721	18610.478516	7195.149902	34.809280
575.100281	1097.447876	18509.691406	7152.800293	34.776405
575.443420	1097.125122	18375.201172	7093.760742	34.706615
575.786499	1094.458130	18211.888672	7032.548340	34.690315
576.129517	1091.361084	18045.138672	6972.262207	34.687855
576.472534	1090.909302	17876.083984	6908.082520	34.656616
576.815491	1091.296509	17689.091797	6836.868652	34.616478
577.158447	1090.221191	17486.445313	6765.074707	34.610733
577.501343	1090.049072	17278.958984	6685.990234	34.566509
577.844116	1089.167236	17046.132813	6595.914063	34.509987
578.187012	1089.769531	16777.798828	6498.331543	34.475727
578.529724	1090.479370	16485.935547	6388.984863	34.416035
578.872375	1090.285645	16187.790039	6279.056641	34.368404
579.215027	1092.199951	15902.677734	6175.323730	34.321136
579.557617	1093.834473	15631.097656	6073.914063	34.257339
579.900146	1097.426270	15371.777344	5978.654785	34.195797
580.242676	1098.200684	15135.146484	5893.311035	34.160641
580.585144	1098.372681	14925.915039	5811.838867	34.087521
580.927612	1099.964355	14731.781250	5737.248535	34.018093
581.269958	1099.598633	14558.878906	5676.617676	34.006416
581.612305	1099.770752	14418.152344	5624.417480	33.972946
581.954590	1099.125488	14297.750000	5578.261230	33.936382
582.296814	1099.512573	14190.812500	5541.568359	33.931358
582.639038	1100.200806	14103.037109	5507.435059	33.894409
582.981140	1099.340576	14021.628906	5477.065918	33.877327
583.323242	1099.512573	13931.920898	5448.116211	33.887665
583.665283	1098.265015	13851.415039	5422.327637	33.905838
584.007324	1100.028687	13781.985352	5396.217285	33.876385
584.349304	1102.007446	13709.204102	5372.837891	33.876133
584.691284	1102.308472	13636.271484	5348.942383	33.881016
585.033142	1102.351685	13574.391602	5325.605957	33.861778
585.374939	1104.566895	13519.954102	5307.130371	33.849640
585.716736	1107.836060	13466.011719	5295.580566	33.886429
586.058411	1106.567139	13411.962891	5278.933105	33.906803
586.400085	1110.137451	13364.902344	5265.232910	33.905960
586.741760	1109.212769	13321.413086	5253.897949	33.938889
587.083374	1109.234253	13313.434570	5258.716309	34.000443
587.424988	1108.954590	13301.734375	5257.038574	34.020824
587.766541	1107.018799	13296.334961	5262.888672	34.094364
588.107971	1106.717773	13323.178711	5269.857422	34.078114
588.449341	1105.964966	13351.696289	5283.665527	34.115566
588.790710	1102.932373	13396.068359	5300.011230	34.141647
589.132080	1100.415894	13431.727539	5320.788574	34.224846
589.473267	1097.619873	13485.625977	5343.780273	34.276382
589.814514	1098.308105	13539.355469	5366.385742	34.306419
590.155762	1094.866943	13599.190430	5389.098145	34.341972
590.496948	1095.662720	13625.881836	5408.412109	34.418789
590.838013	1093.791504	13636.012695	5410.240234	34.415348
591.179077	1093.425903	13644.377930	5417.574707	34.452755
591.520081	1093.124756	13635.905273	5420.370605	34.499897
591.861023	1092.909668	13604.050781	5416.842773	34.560661
592.201965	1094.049683	13567.380859	5413.509277	34.629559
592.542847	1094.350708	13520.362305	5410.712891	34.736507
592.883606	1094.350586	13474.616211	5395.248535	34.739948
593.224365	1093.812988	13432.461914	5383.613281	34.767181
593.565125	1095.038940	13414.565430	5384.301758	34.816784
593.905823	1093.662354	13405.166016	5388.366699	34.883667
594.246521	1093.640991	13429.277344	5396.539551	34.881851
594.587097	1095.813232	13479.755859	5422.736328	34.939785
594.927612	1095.060425	13530.147461	5442.416504	34.960400
595.268127	1098.501831	13617.537109	5476.570801	34.971294
595.608582	1096.738159	13737.702148	5532.362793	35.089291
595.948975	1097.361816	13919.186523	5601.059082	35.125244
596.289307	1097.921021	14138.355469	5679.434570	35.133137
596.629700	1097.920898	14373.543945	5776.607910	35.242691
596.969971	1098.695190	14583.634766	5855.305664	35.273502
597.310242	1095.791748	14748.256836	5918.646484	35.325890
597.650391	1097.017700	14833.452148	5955.898926	35.372215
597.990540	1098.157715	14878.662109	5977.514160	35.407677
598.330627	1096.910278	14868.209961	5976.676270	35.434319
598.670654	1098.071655	14827.321289	5970.051758	35.486134
599.010620	1096.802612	14715.005859	5933.724121	35.518059
599.350525	1097.211182	14560.815430	5878.340820	35.511513
599.690491	1095.447510	14334.487305	5803.256348	35.560043
600.030334	1095.963745	14053.934570	5714.083984	35.639225
600.370178	1098.437134	13753.231445	5608.672852	35.640533
600.710022	1097.920898	13462.032227	5507.649902	35.665554
601.049683	1100.523438	13202.603516	5418.779297	35.681931
601.389343	1100.222290	13015.827148	5360.707520	35.755512
601.728943	1098.458618	12878.240234	5313.841797	35.784904
602.068542	1099.340454	12808.490234	5294.806641	35.830666
602.408081	1099.555542	12813.306641	5301.258301	35.869831
602.747498	1096.587402	12897.833984	5337.177734	35.933411
603.087036	1097.426270	13028.324219	5390.323730	35.981342
603.426453	1096.200317	13228.691406	5457.472168	35.947044
603.765869	1096.049683	13460.613281	5540.644043	35.946228
604.105103	1095.404419	13732.733398	5644.850098	36.000057
604.444336	1095.038940	14025.156250	5760.391113	36.081284
604.783569	1092.694580	14310.224609	5868.770508	36.134407
605.122681	1093.339722	14537.800781	5950.243164	36.125683
605.461792	1093.898926	14714.596680	6017.197266	36.145714
605.800842	1091.619141	14821.641602	6059.159668	36.180134
606.139954	1091.188965	14841.731445	6067.504883	36.189960
606.478943	1092.458008	14791.166016	6049.824707	36.188572
606.817932	1092.909668	14669.818359	6009.906250	36.215878
607.156799	1096.307861	14492.224609	5952.092285	36.248241
607.495605	1098.050049	14283.812500	5875.911133	36.235001
607.834412	1097.770386	14040.190430	5781.727051	36.190731
608.173157	1099.641602	13796.268555	5694.855957	36.192402
608.511841	1100.394409	13598.674805	5626.762207	36.215923
608.850464	1098.394165	13492.187500	5585.509766	36.204540
609.189148	1099.856567	13428.931641	5569.916016	36.256245
609.527710	1100.674072	13402.199219	5563.055176	36.275021
609.866211	1099.684692	13397.660156	5568.625488	36.338833
610.204712	1098.544800	13401.832031	5573.636230	36.373135
610.543091	1097.619873	13421.490234	5578.798828	36.361782
610.881409	1095.705566	13409.467773	5575.185547	36.377834
611.219788	1093.963623	13372.667969	5561.979980	36.388340
611.558044	1093.812988	13309.347656	5545.568848	36.443398
611.896301	1091.705078	13199.097656	5502.445313	36.430141
612.234436	1092.737671	13027.894531	5435.792480	36.388752
612.572693	1094.694824	12793.499023	5358.147949	36.443493
612.910767	1094.221558	12539.918945	5261.985352	36.413364
613.248840	1094.178589	12277.156250	5163.973145	36.392761
613.586792	1096.888550	12025.425781	5067.875488	36.335941
613.924805	1098.695190	11788.512695	4983.908203	36.344990
614.262695	1099.727661	11571.411133	4903.833496	36.327549
614.600525	1101.254761	11383.238281	4841.266113	36.374413
614.938293	1102.953979	11231.972656	4787.410156	36.375252
615.276123	1103.040039	11102.236328	4733.554199	36.308060
615.613892	1100.824707	10995.621094	4694.129395	36.315094
615.951538	1099.362183	10904.834961	4658.039551	36.292767
616.289185	1099.835205	10831.686523	4628.723633	36.261223
616.626770	1097.641479	10767.162109	4606.506348	36.287888
616.964294	1097.727417	10728.683594	4593.666016	36.298977
617.301819	1096.781128	10697.540039	4579.664551	36.277168
617.639221	1097.619873	10677.108398	4568.437012	36.231758
617.976624	1097.211060	10657.708008	4561.532715	36.235790
618.313965	1096.243286	10649.468750	4556.585938	36.221722
618.651306	1096.028198	10634.735352	4554.176758	36.253849
618.988525	1094.178589	10620.928711	4551.015137	36.285580
619.325684	1097.297363	10602.753906	4545.401855	36.274998
619.662964	1099.921387	10589.075195	4544.240234	36.297428
620.000000	1099.813721	10570.235352	4538.992188	36.314945
620.337097	1098.974854	10547.738281	4530.668457	36.318970
620.674133	1097.942505	10512.743164	4518.172363	36.328224
621.011047	1097.017578	10483.148438	4508.708984	36.348221
621.347961	1096.092773	10448.735352	4495.438477	36.346367
621.684875	1094.737793	10412.816406	4482.491211	36.356781
622.021729	1095.813232	10378.791016	4469.951660	36.347588
622.358521	1095.684204	10344.764648	4455.669922	36.327785
622.695313	1097.103638	10306.308594	4447.497070	36.380920
623.031982	1096.824097	10284.176758	4440.851074	36.398155
623.368652	1095.296997	10261.485352	4435.774902	36.443481
623.705261	1095.963745	10251.548828	4431.968750	36.436829
624.041748	1097.469238	10251.785156	4435.560547	36.464672
624.378296	1099.340454	10255.355469	4439.819336	36.483986
624.714722	1099.426636	10275.638672	4449.906250	36.512665
625.051147	1101.190186	10313.256836	4464.037109	36.504807
625.387512	1100.501953	10365.477539	4486.878418	36.550301
625.723877	1098.609253	10452.929688	4513.247070	36.503323
626.060120	1099.770630	10549.522461	4549.596191	36.507050
626.396301	1098.716797	10676.248047	4587.062988	36.422184
626.732483	1099.362183	10795.445313	4631.176270	36.425163
627.068604	1102.287109	10906.147461	4672.987793	36.421375
627.404724	1102.631348	11006.245117	4710.282715	36.427628
627.740662	1102.609863	11092.771484	4739.103516	36.400745
628.076721	1104.029175	11155.273438	4758.460449	36.357998
628.412720	1104.889526	11191.256836	4768.418945	36.321594
628.748596	1103.620605	11195.687500	4770.914063	36.338379
629.084473	1105.943481	11178.266602	4761.429199	36.292381
629.420227	1107.277100	11111.333984	4741.663086	36.329121
629.755981	1106.911377	11027.991211	4710.067383	36.318184
630.091675	1108.180298	10910.987305	4673.590332	36.371319
630.427307	1110.503174	10777.874023	4625.799316	36.362484
630.762939	1106.266113	10644.050781	4576.545898	36.384544
631.098450	1105.362671	10515.711914	4527.033691	36.360722
631.434021	1104.781982	10400.235352	4483.050293	36.343235
631.769470	1103.685059	10291.620117	4443.840820	36.353714
632.104980	1102.846313	10191.930664	4408.029785	36.364319
632.440308	1102.029053	10108.780273	4378.671387	36.379848
632.775635	1101.813965	10030.147461	4354.969238	36.436310
633.110901	1099.211426	9979.409180	4334.343262	36.430855
633.446106	1098.480103	9941.985352	4320.041016	36.428555
633.781250	1099.641602	9918.605469	4307.265137	36.371887
634.116394	1099.232910	9898.128906	4299.758789	36.374172
634.451538	1102.158081	9885.289063	4293.371094	36.333431
634.786560	1102.867798	9865.500977	4284.789551	36.312397
635.121582	1102.502075	9830.788086	4273.776855	36.333305
635.456543	1102.308594	9802.785156	4261.861816	36.314716
635.791443	1103.534424	9758.627930	4244.095703	36.285698
636.126221	1104.502441	9707.848633	4225.168457	36.272701
636.461060	1105.190674	9659.993164	4208.263184	36.272869
636.795776	1107.190918	9596.716797	4185.895020	36.264736
637.130493	1105.943481	9518.750000	4156.902344	36.265648
637.465210	1103.878784	9428.092773	4127.328613	36.321144
637.799805	1102.028931	9344.297852	4095.518555	36.318760
638.134399	1101.233276	9254.458984	4061.815430	36.311787
638.468933	1101.254761	9165.372070	4035.145264	36.382042
638.803345	1101.125610	9083.641602	4005.206055	36.380516
639.137756	1100.050293	9002.297852	3974.729004	36.377987
639.472168	1100.394409	8935.709961	3953.436035	36.412594
639.806519	1100.007324	8868.152344	3926.679688	36.387997
640.140747	1096.695190	8796.789063	3897.214111	36.369934
640.474976	1094.071167	8722.736328	3873.490723	36.433891
640.809204	1094.759277	8651.587891	3850.413086	36.465744
641.143372	1095.899292	8599.172852	3829.915771	36.437653
641.477478	1095.770264	8539.037109	3811.956299	36.491856
641.811462	1095.469116	8489.138672	3791.867432	36.469017
642.145447	1096.630615	8438.615234	3771.693115	36.435143
642.479370	1098.974976	8393.835938	3758.013916	36.450855
642.813293	1100.846069	8347.163086	3746.829834	36.514881
643.147095	1100.846191	8300.597656	3732.634521	36.553879
643.480957	1101.039673	8259.368164	3722.246094	36.617577
643.814758	1104.373413	8223.168945	3710.265869	36.605808
644.148438	1105.362793	8195.423828	3699.490479	36.588226
644.482117	1105.986450	8168.646973	3689.124023	36.574570
644.815735	1103.061401	8131.695801	3678.326660	36.639622
645.149292	1102.717163	8109.973145	3668.260986	36.612679
645.482788	1101.899902	8092.078125	3660.432129	36.601818
645.816223	1099.942749	8076.871582	3651.549316	36.572060
646.149658	1099.706177	8067.816895	3643.741455	36.509682
646.483032	1100.502075	8075.860840	3646.451660	36.499191
646.816345	1100.093384	8077.473633	3648.279785	36.520676
647.149658	1098.200684	8077.538574	3646.903076	36.517826
647.482849	1096.200317	8084.291992	3645.354736	36.478546
647.816101	1096.824097	8078.957520	3648.581055	36.546951
648.149231	1098.308105	8086.378418	3652.732178	36.554070
648.482239	1100.523560	8096.530762	3653.226807	36.487999
648.815247	1100.953613	8095.196777	3650.172607	36.447388
649.148254	1099.426636	8089.260742	3652.151611	36.520538
649.481201	1100.222412	8077.538574	3652.645996	36.581738
649.814087	1101.082764	8073.194824	3656.603027	36.653458
650.146973	1098.630859	8060.848633	3652.043945	36.675282
650.479736	1098.931885	8054.697266	3645.419434	36.609737
650.812500	1101.921509	8054.976563	3650.538330	36.654633
651.145203	1101.104248	8043.039551	3648.258057	36.692272
651.477844	1100.803101	8051.212402	3645.031982	36.605457
651.810486	1097.705933	8047.298340	3645.720215	36.664227
652.143005	1096.716675	8036.156250	3644.516357	36.714779
652.475525	1096.716675	8036.543457	3643.849365	36.703117
652.807922	1097.426392	8025.961426	3640.364990	36.702396
653.140381	1097.168213	8024.478027	3637.246094	36.667595
653.472717	1095.383057	7998.733887	3629.675537	36.711048
653.805115	1095.727173	7972.062988	3618.706299	36.690746
654.137390	1093.770020	7941.564453	3611.006348	36.759811
654.469543	1093.296753	7907.625000	3593.090576	36.684380
654.801758	1095.619629	7876.094238	3585.691650	36.724155
655.133850	1096.867065	7834.734375	3567.968750	36.674835
655.465881	1097.490723	7790.793457	3551.966553	36.670624
655.797974	1099.082397	7760.961426	3542.159180	36.672485
656.129944	1099.921143	7724.742188	3536.201660	36.775036
656.461853	1098.114502	7702.911133	3531.061768	36.836063
656.793762	1096.974487	7684.500000	3525.706055	36.868645
657.125610	1097.189575	7687.489258	3526.114258	36.856060
657.457397	1096.845581	7706.740234	3536.093994	36.902988
657.789124	1098.265137	7744.443359	3550.805664	36.901516
658.120789	1096.652100	7805.526367	3579.755615	37.012226
658.452393	1095.963867	7895.795410	3617.459229	37.081734
658.783997	1096.393921	8007.443848	3662.454102	37.129814
659.115540	1099.706177	8137.502930	3710.632080	37.098625
659.447083	1099.082520	8251.990234	3756.767090	37.155304
659.778503	1097.383301	8362.735352	3800.041260	37.199272
660.109924	1099.276001	8457.262695	3830.388916	37.117664
660.441284	1099.770630	8524.668945	3862.392822	37.207539
660.772522	1100.394287	8568.072266	3879.469727	37.214722
661.103760	1101.082520	8577.277344	3883.061768	37.211166
661.434998	1102.028809	8569.641602	3878.781494	37.183941
661.766113	1104.007690	8515.679688	3855.467285	37.123329
662.097229	1104.029419	8421.323242	3818.150879	37.091877
662.428345	1104.717651	8297.867188	3777.350098	37.155247
662.759277	1102.179565	8148.234863	3725.666260	37.233414
663.090332	1102.609741	8003.937988	3673.853027	37.257221
663.421204	1101.942993	7856.973145	3613.544434	37.181202
663.752075	1102.846313	7713.859375	3566.420166	37.264694
664.082886	1102.867798	7589.284668	3516.672119	37.213215
664.413635	1100.889160	7478.367676	3476.753174	37.253971
664.744324	1099.233032	7379.688965	3444.448242	37.341480
665.075012	1097.899536	7287.720215	3414.960938	37.433418
665.405640	1097.963989	7214.679199	3390.656494	37.482410
665.736206	1098.394165	7161.597168	3375.084961	37.549309
666.066772	1095.727051	7110.623047	3355.469482	37.569103
666.397278	1096.867065	7076.941895	3344.500244	37.585373
666.727661	1095.555054	7038.851074	3330.477295	37.604092
667.058044	1097.469238	7009.146973	3326.928711	37.712803
667.388306	1097.512329	6988.822266	3320.583008	37.734745
667.718567	1098.673828	6970.820313	3312.281250	37.696735
668.048828	1099.899780	6964.669922	3309.334473	37.672997
668.378967	1102.889404	6962.884277	3306.818604	37.609745
668.709167	1103.921875	6958.732910	3307.377930	37.634964
669.039246	1101.878540	6962.690918	3308.840088	37.656239
669.369263	1102.416260	6956.776367	3303.592041	37.598911
669.699341	1104.846558	6948.473633	3301.678223	37.593632
670.029236	1105.083130	6938.924805	3297.311768	37.577785
670.359131	1107.147827	6934.085449	3292.214600	37.499405
670.688965	1106.502686	6921.546875	3284.385254	37.452557
671.018738	1105.384277	6902.124512	3279.546143	37.506630
671.348511	1103.878662	6880.379883	3278.277100	37.642136
671.678223	1104.308716	6849.687500	3271.717285	37.724380
672.007813	1102.867676	6814.112793	3257.414307	37.724640
672.337341	1100.157715	6783.227051	3246.316162	37.764072
672.666992	1102.201050	6750.986328	3234.400635	37.746162
672.996460	1102.115112	6716.401855	3221.904541	37.757061
673.325867	1100.673950	6688.054199	3210.117920	37.753719
673.655273	1097.275635	6651.426270	3194.202148	37.754227
673.984619	1095.382935	6617.271484	3185.319336	37.848221
674.314026	1096.415283	6586.729492	3176.286133	37.882545
674.643250	1098.243652	6561.845215	3162.413330	37.780384
674.972412	1098.802856	6540.853516	3149.250732	37.677849
675.301514	1098.243652	6515.022949	3136.732910	37.632866
675.630676	1097.404663	6495.687012	3127.979004	37.615192
675.959778	1100.243774	6470.328125	3115.783691	37.532742
676.288757	1099.189941	6442.131348	3108.169678	37.600632
676.617737	1098.265137	6422.817383	3099.545166	37.585884
676.946594	1098.566284	6406.148438	3092.963867	37.576385
677.275513	1100.673950	6395.158203	3090.103027	37.575500
677.604309	1101.899902	6392.383301	3086.382080	37.510414
677.933044	1100.781494	6398.320313	3088.855713	37.528259
678.261780	1100.803101	6410.879883	3093.200684	37.521069
678.590393	1099.340576	6432.216797	3099.760742	37.511093
678.919067	1101.254761	6468.823242	3109.051758	37.406082
679.247620	1100.523315	6513.860840	3125.957275	37.415623
679.576111	1099.125366	6559.737305	3143.012695	37.429638
679.904541	1098.179077	6620.088867	3159.896729	37.337044
680.232971	1098.006958	6676.332520	3181.211182	37.344612
680.561401	1097.490845	6732.962891	3201.342773	37.332314
680.889709	1097.082153	6787.829590	3220.742920	37.317780
681.217957	1096.350830	6834.244141	3235.475830	37.280666
681.546143	1094.006470	6873.323730	3246.014893	37.236374
681.874390	1095.318481	6900.359375	3256.274414	37.225510
682.202454	1096.393799	6914.985840	3261.694336	37.213482
682.530579	1096.157227	6905.263672	3261.651367	37.277576
682.858521	1099.017700	6874.012695	3250.682129	37.258293
683.186523	1099.426514	6833.169922	3238.508789	37.306908
683.514465	1099.641602	6772.193848	3219.689209	37.373787
683.842346	1100.157715	6708.701660	3196.310059	37.374271
684.170166	1101.727905	6635.251465	3171.855469	37.410656
684.497925	1100.673950	6558.102051	3145.938477	37.476711
684.825623	1100.609375	6474.780762	3116.644531	37.513412
685.153320	1103.814087	6395.049805	3088.533447	37.509560
685.481018	1100.932007	6318.846680	3059.970459	37.544472
685.808533	1097.920898	6247.827637	3033.687500	37.588383
686.136047	1096.910034	6188.508301	3008.243896	37.538979
686.463623	1094.716309	6143.836426	2993.510742	37.606441
686.791016	1093.898926	6115.273438	2978.799072	37.537533
687.118408	1093.038696	6102.132324	2968.518311	37.441494
687.445740	1093.705566	6096.776855	2967.249268	37.447872
687.772949	1094.221558	6093.271484	2962.668213	37.376038
688.100220	1095.705688	6093.701660	2960.151611	37.303867
688.427429	1093.985107	6090.109375	2957.592285	37.301060
688.754517	1094.995972	6091.464355	2953.957275	37.205505
689.081604	1098.157593	6083.226563	2951.225830	37.172371
689.408630	1102.158203	6065.138672	2943.461426	37.100754
689.735657	1102.394653	6042.167480	2933.438721	37.067371
690.062622	1104.502441	6012.873535	2920.447754	36.996902
690.389465	1104.244385	5970.202637	2903.972656	36.986103
690.716248	1105.685425	5911.765137	2884.658447	37.015057
691.043091	1103.599121	5852.058105	2857.128174	36.928383
691.369812	1101.125732	5789.728027	2837.555908	37.035133
691.696533	1100.910645	5724.429688	2812.327148	37.015453
692.023132	1104.050781	5671.025391	2790.388916	36.924622
692.349670	1102.287109	5605.705078	2768.579834	37.000622
692.676270	1101.039673	5552.150391	2742.985107	36.888443
693.002747	1098.523315	5502.918457	2725.929443	36.949596
693.329163	1099.146973	5454.503906	2710.895264	37.006111
693.655518	1098.566284	5414.843262	2693.473389	36.950993
693.981873	1098.286743	5380.150879	2677.084229	36.871731
694.308167	1097.318726	5352.255371	2664.007568	36.820499
694.634399	1099.340576	5318.573730	2652.672852	36.815510
694.960571	1100.588013	5295.774902	2641.015625	36.718925
695.286743	1100.222412	5279.320801	2633.767334	36.695591
695.612854	1098.652222	5266.910645	2628.175293	36.694538
695.938904	1098.630737	5266.072266	2627.271729	36.680565
696.264832	1098.845825	5277.858887	2634.068359	36.736485
696.590820	1100.846191	5295.279785	2640.950928	36.717823
696.916687	1100.394409	5332.553223	2652.049072	36.663433
697.242554	1100.114868	5381.053711	2668.373535	36.633522
697.568359	1099.856689	5452.417480	2697.280273	36.700779
697.894043	1100.738525	5550.967285	2731.478271	36.643955
698.219788	1099.534058	5673.821777	2774.838379	36.624378
698.545349	1101.792358	5811.623535	2819.403320	36.468632
698.870972	1102.136597	5945.833984	2867.194092	36.440292
699.196533	1102.846313	6066.235840	2911.177979	36.433403
699.521973	1101.211670	6169.517578	2943.999512	36.359051
699.847412	1101.125488	6241.720215	2972.110352	36.396271
700.172852	1103.534424	6290.349609	2988.262695	36.336906
700.498169	1104.201172	6309.813965	2995.596924	36.333778
700.823486	1103.749512	6299.876953	2989.703857	36.295383
701.148682	1104.244263	6248.881348	2965.184570	36.172432
701.473816	1103.663574	6161.343750	2930.750244	36.124992
701.799072	1104.351685	6041.027832	2884.443604	36.058510
702.124146	1100.867554	5895.203125	2833.103760	36.130894
702.449158	1100.544922	5739.484863	2776.645508	36.131111
702.774109	1103.018433	5585.810059	2722.208252	36.120125
703.099060	1102.674316	5439.813965	2671.535400	36.172714
703.424011	1102.502197	5303.388672	2620.152588	36.126907
703.748840	1100.630981	5186.169434	2575.222412	36.092953
704.073608	1099.426514	5079.683105	2532.507568	36.004742
704.398315	1100.846069	4983.585449	2501.665039	36.078110
704.723022	1103.513062	4910.414551	2478.436523	36.116604
705.047668	1101.942993	4846.686523	2457.250977	36.192276
705.372253	1101.770996	4791.173828	2436.323486	36.172588
705.696716	1102.953857	4744.007324	2418.622314	36.134281
706.021240	1102.674316	4704.539551	2403.953613	36.127930
706.345764	1097.641357	4671.353027	2389.091553	36.137505
706.670044	1099.942749	4651.285645	2379.241211	36.022949
706.994446	1097.189697	4638.187500	2371.777588	35.995163
707.318665	1095.318604	4627.347168	2365.519043	35.962349
707.642883	1094.587158	4623.282227	2363.454346	35.958538
707.967102	1093.038574	4619.604980	2362.507813	35.997314
708.291260	1092.113770	4615.281250	2358.141602	35.934364
708.615295	1095.447510	4613.969727	2357.991211	35.882782
708.939331	1096.630493	4619.562012	2360.765869	35.883053
709.263367	1096.415527	4626.874512	2362.120850	35.851013
709.587280	1097.641479	4638.832520	2363.282227	35.740540
709.911194	1098.888794	4662.556152	2370.143066	35.672642
710.234985	1098.071533	4684.344238	2376.014893	35.634304
710.558716	1101.104248	4710.605469	2387.586182	35.641544
710.882568	1104.373413	4740.694824	2404.297852	35.748337
711.206177	1105.212158	4770.397949	2416.299072	35.771362
711.529785	1105.319702	4803.110840	2422.321533	35.615906
711.853394	1104.459351	4831.093262	2434.193848	35.681919
712.176880	1103.857178	4846.105469	2438.968994	35.676731
712.500427	1102.394653	4857.935059	2446.109131	35.779522
712.823792	1100.458984	4866.709961	2446.410400	35.737167
713.147217	1100.351440	4868.839355	2446.840820	35.730232
713.470520	1099.878052	4855.547363	2443.937256	35.787472
713.793823	1100.437378	4835.544922	2438.151611	35.814613
714.117004	1100.523438	4811.112305	2425.999756	35.721455
714.440247	1098.200684	4783.754395	2412.277588	35.654804
714.763367	1098.415771	4748.201172	2400.211182	35.667725
715.086365	1097.232788	4712.841797	2388.424805	35.711605
715.409485	1096.781128	4687.011230	2377.412598	35.669899
715.732361	1097.275879	4667.696777	2369.002930	35.618408
716.055298	1097.405029	4649.586426	2359.582520	35.532463
716.378174	1100.308472	4628.573242	2354.979980	35.560585
716.700928	1100.760132	4606.527832	2346.720947	35.540314
717.023804	1101.340820	4585.686035	2336.203613	35.440311
717.346558	1101.728027	4558.823242	2326.546631	35.429127
717.669189	1098.609253	4527.421387	2316.287109	35.513111
717.991760	1097.469238	4488.470215	2303.791016	35.574207
718.314392	1096.587402	4450.594238	2287.659912	35.511929
718.636902	1099.577026	4408.395508	2272.539551	35.449589
718.959351	1100.157715	4350.775391	2254.644775	35.515930
719.281738	1098.566284	4297.457031	2236.814697	35.582600
719.604065	1098.781250	4234.267090	2212.467773	35.518787
719.926453	1097.727417	4175.249023	2192.744629	35.581139
720.248718	1095.963745	4124.210449	2175.151367	35.637375
720.570923	1096.028198	4073.709229	2157.191895	35.637249
720.893066	1093.705322	4031.316406	2140.179199	35.623295
721.215088	1096.178833	3985.740723	2124.134277	35.574783
721.537170	1098.501709	3947.241943	2108.347412	35.448853
721.859192	1100.587891	3913.947754	2098.539307	35.471870
722.181152	1099.103882	3881.728271	2089.355469	35.586964
722.503052	1100.480469	3859.360107	2079.956543	35.502674
722.824951	1102.652832	3835.615479	2069.783447	35.387627
723.146790	1103.190552	3823.097412	2067.266602	35.445187
723.468506	1104.330444	3809.010010	2062.664063	35.432426
723.790161	1104.480957	3791.265625	2055.308350	35.389042
724.111816	1107.599609	3779.392822	2056.770996	35.525631
724.433472	1109.083618	3764.789063	2056.448242	35.672802
724.755005	1108.933105	3761.132813	2058.276367	35.794563
725.076477	1107.642578	3755.927979	2058.620605	35.909199
725.397888	1106.309082	3752.292969	2056.168701	35.898163
725.719299	1106.760864	3754.831055	2056.104004	35.850376
726.040710	1105.642456	3757.368652	2057.867920	35.909645
726.361938	1102.781738	3763.111572	2061.416504	36.034431
726.683167	1101.319336	3769.628174	2062.470459	36.020985
727.004395	1098.523315	3782.791260	2065.869141	36.037601
727.325500	1098.888916	3802.943848	2072.385742	36.001369
727.646667	1097.361816	3818.666504	2078.193115	36.042686
727.967651	1096.738037	3837.765625	2082.709717	35.970879
728.288635	1095.533569	3854.434570	2090.947266	36.080082
728.609558	1096.609009	3870.242920	2096.883545	36.063683
728.930481	1097.748901	3888.051514	2104.583252	36.083336
729.251282	1097.533813	3895.902100	2110.842041	36.210682
729.572021	1097.856567	3901.946045	2112.648682	36.189720
729.892761	1101.147217	3904.398193	2114.562988	36.151447
730.213440	1103.082886	3907.000244	2120.864990	36.298576
730.534119	1103.125854	3909.043701	2123.596436	36.368511
730.854675	1105.298340	3910.914795	2129.575684	36.508102
731.175171	1103.986328	3916.764893	2129.704834	36.466381
731.495605	1106.180176	3921.561035	2131.447021	36.416630
731.816101	1105.470215	3924.852295	2127.188477	36.239086
732.136475	1105.083130	3927.583008	2129.425293	36.292015
732.456787	1101.405273	3927.024170	2132.371582	36.486389
732.777039	1100.803101	3935.347900	2133.189209	36.421581
733.097229	1101.018066	3941.176758	2136.243164	36.449551
733.417480	1098.867310	3944.983398	2137.856201	36.505497
733.737549	1097.125122	3943.112305	2133.748291	36.424026
734.057617	1098.179077	3932.616455	2129.188721	36.374401
734.377563	1095.189331	3911.086670	2120.757568	36.420654
734.697510	1096.071289	3878.867432	2111.681152	36.496021
735.017517	1093.770020	3843.358398	2103.636963	36.727932
735.337341	1093.189331	3805.761963	2091.915039	36.818394
735.657166	1093.683960	3767.800537	2081.290283	36.932056
735.976868	1096.243286	3729.903076	2068.987549	36.935078
736.296631	1096.479980	3685.919434	2056.555908	37.076591
736.616272	1096.609009	3646.989746	2046.468750	37.243839
736.935852	1094.200195	3613.695068	2037.714844	37.448563
737.255371	1092.995728	3579.648193	2033.370239	37.816887
737.574829	1092.716187	3553.386719	2029.692505	38.078091
737.894348	1093.167847	3539.879150	2029.240723	38.258408
738.213745	1090.952515	3535.707031	2028.853394	38.363808
738.533081	1090.780396	3536.954102	2029.713623	38.383751
738.852356	1092.436523	3542.008545	2036.488770	38.539478
739.171570	1091.425659	3550.095947	2036.639526	38.444107
739.490784	1090.414673	3554.031982	2039.715210	38.532795
739.809937	1089.769409	3559.795898	2038.854980	38.424107
740.129028	1086.263550	3556.870850	2038.446167	38.540424
740.447998	1089.360840	3549.062744	2036.725464	38.515423
740.767029	1089.791016	3542.073242	2032.940186	38.460056
741.085999	1090.866333	3529.534180	2027.262085	38.397839
741.404846	1093.941895	3505.854004	2019.046021	38.355633
741.723633	1096.566040	3479.054688	2011.905151	38.419453
742.042358	1097.619995	3447.330566	2001.301880	38.459286
742.361145	1098.308105	3413.713379	1991.085205	38.558136
742.679810	1098.630737	3378.698242	1982.224121	38.752949
742.998413	1098.071411	3342.435303	1971.577637	38.919994
743.316956	1096.544434	3307.721191	1965.103638	39.280407
743.635498	1100.953491	3277.159180	1954.973511	39.243538
743.953979	1099.835205	3247.563477	1949.789917	39.574593
744.272400	1103.276489	3222.377930	1941.530884	39.557064
744.590698	1101.018066	3197.170166	1936.218384	39.844452
744.909058	1098.652222	3172.715576	1933.121460	40.233543
745.227356	1099.361938	3152.347656	1926.389526	40.284134
745.545471	1099.835083	3136.452881	1924.324585	40.483273
745.863586	1101.706299	3118.794678	1919.893799	40.562798
746.181702	1101.835449	3099.072021	1917.699707	40.849655
746.499756	1105.083130	3085.199463	1916.129761	40.959545
746.817810	1108.782593	3073.305420	1915.312622	41.054756
747.135742	1106.696411	3063.347412	1917.484863	41.437561
747.453613	1107.449097	3057.948975	1917.592529	41.535172
747.771423	1105.448730	3051.646729	1921.678955	41.939732
748.089233	1108.997559	3048.893799	1926.453857	42.139175
748.406982	1110.008545	3053.905273	1930.045654	42.185219
748.724609	1109.685913	3058.378906	1939.079224	42.561516
749.042236	1107.018799	3059.346924	1943.918457	42.866753
749.359863	1104.480957	3064.616455	1953.704590	43.324741
749.677429	1103.362427	3072.724854	1962.157104	43.607750
749.994873	1101.577393	3079.026611	1971.405762	43.987392
750.312256	1100.243896	3083.586182	1979.320435	44.322987
750.629639	1103.491699	3088.361084	1987.299927	44.527275
750.946960	1104.222900	3091.178711	1995.128906	44.837738
751.264282	1104.782104	3090.511719	2001.774902	45.171951
751.581482	1103.943237	3088.726563	2007.044556	45.501255
751.898621	1101.728027	3083.779785	2015.174561	46.085907
752.215698	1100.243774	3078.725586	2019.389893	46.457142
752.532715	1102.738770	3077.456787	2027.348022	46.822342
752.849792	1101.534424	3074.101318	2033.026245	47.222317
753.166748	1101.620483	3069.283447	2041.371094	47.759735
753.483643	1101.469849	3068.767090	2049.909912	48.210308
753.800476	1100.501953	3066.680664	2059.631836	48.781418
754.117310	1095.877808	3065.132568	2069.030518	49.417309
754.434082	1092.780518	3060.593994	2078.171631	50.075432
754.750732	1091.791138	3060.551025	2091.592529	50.783306
755.067383	1092.264404	3061.110352	2104.045898	51.389572
755.383911	1093.511963	3057.410889	2110.971436	51.808140
755.700562	1093.425903	3055.905273	2122.069336	52.415504
756.016968	1093.382935	3049.216309	2133.102783	53.159939
756.333435	1095.490601	3043.925537	2142.157715	53.718349
756.649780	1097.447754	3042.161621	2149.577881	54.102055
756.966064	1096.996094	3042.914795	2160.202881	54.637779
757.282410	1097.017578	3046.441650	2173.495117	55.220287
757.598633	1096.630493	3049.990723	2190.443359	55.996475
757.914795	1100.329956	3059.734131	2206.230225	56.440639
758.230896	1099.577148	3072.273438	2222.705322	56.933659
758.546936	1096.673706	3082.403320	2242.492920	57.702679
758.862976	1095.146606	3093.996094	2263.355713	58.444077
759.178894	1094.221558	3103.352295	2284.648682	59.250854
759.494812	1095.296997	3115.203125	2304.070313	59.843044
759.810669	1094.931274	3124.688232	2323.513672	60.528545
760.126526	1094.027832	3134.172852	2343.795898	61.258785
760.442261	1093.662354	3138.109131	2364.099365	62.140869
760.757935	1092.414917	3141.571777	2379.025879	62.787338
761.073608	1095.877808	3145.593750	2393.802002	63.322155
761.389160	1094.006592	3143.851563	2408.599609	64.131340
761.704712	1095.576538	3141.012451	2422.751709	64.884712
762.020203	1098.351074	3145.658447	2438.280518	65.448380
762.335571	1100.458862	3166.349365	2464.864502	66.044426
762.650940	1102.394653	3207.171631	2506.267578	66.699371
762.966370	1100.329956	3283.697021	2573.501709	67.472466
763.281677	1100.867676	3390.075928	2665.986084	68.369423
763.596863	1098.243652	3507.316162	2762.363525	69.077202
763.911987	1100.415894	3602.295898	2846.395508	69.786705
764.227112	1102.867798	3678.735352	2915.393555	70.365639
764.542236	1103.319458	3740.076416	2966.453369	70.660057
764.857178	1103.685059	3780.877441	3010.458740	71.222885
765.172119	1102.609863	3804.622070	3042.011475	71.776199
765.487061	1099.082397	3818.322754	3063.175049	72.229462
765.801880	1095.899292	3806.385742	3070.165039	72.838066
766.116760	1094.608643	3769.692871	3055.948486	73.318810
766.431458	1094.243042	3686.671875	3010.588135	73.920837
766.746155	1093.124634	3573.044678	2937.804932	74.384674
767.060791	1095.296997	3442.340576	2851.170410	74.812141
767.375427	1094.716309	3328.520264	2774.408203	75.194237
767.689941	1093.232300	3229.862549	2714.271729	75.868965
768.004395	1090.027466	3144.906006	2666.997070	76.742722
768.318848	1087.769165	3074.574463	2626.648193	77.454948
768.633179	1088.134888	3014.631836	2588.901367	77.901314
768.947632	1090.457764	2957.291260	2557.886963	78.605255
769.261841	1091.188965	2908.618408	2527.646484	79.037872
769.576111	1091.877197	2861.257813	2501.922852	79.691483
769.890259	1093.038818	2827.167725	2481.554688	80.069931
770.204285	1094.501221	2789.485596	2459.078857	80.506798
770.518433	1092.630127	2756.814697	2445.765381	81.309204
770.832458	1091.081543	2725.714111	2428.558838	81.821281
771.146362	1090.844849	2697.301758	2415.503906	82.458427
771.460205	1091.619263	2670.524170	2399.329834	82.823898
771.774109	1093.490356	2651.468262	2384.704346	82.877556
772.087952	1094.608765	2632.154053	2374.767822	83.259926
772.401672	1094.888550	2615.657227	2360.851807	83.244957
772.715332	1098.071411	2602.666504	2355.023193	83.540863
773.028992	1098.630737	2589.718506	2344.333740	83.543236
773.342590	1098.049927	2572.082031	2334.913086	83.910194
773.656128	1097.103638	2557.994385	2330.761963	84.445625
773.969604	1099.555664	2543.970947	2325.944336	84.905548
774.283020	1100.200928	2532.851563	2317.405518	84.961716
774.596375	1099.577148	2521.043701	2308.436523	85.043114
774.909729	1100.695557	2507.816162	2304.930908	85.581528
775.223022	1101.900024	2492.523926	2299.123779	86.092560
775.536194	1105.836060	2481.941895	2295.144775	86.425674
775.849304	1105.857544	2466.456055	2294.800781	87.383842
776.162476	1104.674561	2453.142822	2286.433838	87.637161
776.475525	1104.739014	2438.840088	2281.035400	88.171463
776.788513	1105.427246	2430.839111	2276.906006	88.386017
777.101440	1103.857178	2424.859863	2272.754883	88.485641
777.414307	1102.502075	2417.826660	2265.936523	88.452271
777.727173	1100.566406	2414.213379	2264.839600	88.629074
778.039978	1102.781738	2408.384521	2261.914551	88.781433
778.352722	1101.211792	2403.846191	2257.634521	88.775696
778.665405	1098.566284	2402.491455	2254.300781	88.635033
778.977966	1092.823608	2397.759521	2252.236084	88.848228
779.290649	1092.436401	2399.566162	2247.633301	88.376602
779.603149	1092.156860	2396.124756	2247.956055	88.637093
779.915588	1090.328613	2397.006836	2250.687744	88.802208
780.227966	1090.199585	2391.801514	2253.333008	89.361687
780.540405	1090.048950	2385.219971	2253.483398	89.828636
780.852722	1088.307007	2382.596191	2253.074707	89.992851
781.164917	1089.554321	2373.412354	2249.289307	90.332024
781.477173	1089.876953	2365.260742	2246.514893	90.689400
781.789246	1090.737305	2355.926270	2243.396240	91.105675
782.101379	1091.360962	2343.107666	2242.278076	91.944885
782.413452	1092.500977	2335.429199	2232.964844	91.756210
782.725403	1091.683716	2324.244873	2230.770996	92.416290
783.037292	1092.586914	2315.189941	2224.103516	92.549797
783.349182	1094.264648	2301.854980	2212.123291	92.569359
783.661072	1094.049561	2294.843262	2199.562988	92.065224
783.972839	1094.845337	2286.003662	2189.239014	91.876427
784.284546	1096.609009	2271.679443	2181.023193	92.285034
784.596191	1097.211182	2261.699463	2178.183838	92.828125
784.907898	1095.383057	2254.236084	2169.301025	92.670769
785.219421	1096.652100	2247.138428	2162.827148	92.671684
785.530884	1095.189453	2243.331787	2154.675781	92.278305
785.842346	1094.737793	2236.341553	2151.513916	92.569435
786.153748	1096.479858	2227.588135	2146.846680	92.861740
786.465149	1096.845581	2220.232178	2145.663574	93.362160
786.776428	1098.093018	2214.403320	2150.201660	94.248764
787.087646	1100.114746	2210.489014	2151.814697	94.715805
787.398804	1100.028809	2215.650879	2161.536621	95.149406
787.709961	1101.448242	2228.491211	2175.237061	95.274879
788.021057	1103.448486	2243.998535	2191.475830	95.394966
788.332031	1105.255127	2260.581299	2209.951172	95.617676
788.643005	1103.792725	2278.411377	2228.706299	95.768410
788.953918	1105.513306	2290.907715	2240.041260	95.708900
789.264832	1108.137329	2298.671875	2254.472900	96.287468
789.575623	1107.040527	2307.898926	2260.989990	96.093719
789.886353	1104.803589	2315.555664	2264.926025	95.818329
790.197083	1102.480835	2321.470459	2263.140625	95.214905
790.507690	1098.695313	2320.459473	2261.613525	95.183525
790.818359	1099.792236	2312.114258	2253.418945	95.158440
791.128845	1098.394287	2292.391357	2234.277100	95.132797
791.439331	1097.297363	2270.732666	2214.855225	95.238129
791.749756	1095.619629	2247.246338	2193.820313	95.360825
792.060120	1096.092896	2224.662842	2171.129150	95.256500
792.370483	1097.361694	2201.928711	2151.062012	95.394875
792.680786	1093.597778	2184.206055	2131.209961	95.140686
792.990967	1093.619263	2169.795898	2119.595947	95.335342
793.301086	1095.189453	2154.396240	2108.863281	95.701218
793.611267	1093.275269	2141.577393	2099.593506	95.995056
793.921326	1095.254028	2130.070557	2093.055176	96.423004
794.231323	1095.834839	2122.757568	2081.698975	96.001785
794.541260	1097.576782	2120.929443	2080.709473	96.069786
794.851074	1098.308105	2121.144287	2074.794922	95.468544
795.161011	1099.297607	2123.252197	2078.709229	95.649910
795.470764	1099.512573	2126.284912	2084.043213	95.885971
795.780518	1099.598755	2132.049072	2096.388916	96.546066
796.090149	1102.050659	2141.147217	2105.938232	96.611580
796.399780	1099.663208	2146.158447	2111.121582	96.651978
796.709412	1098.458618	2155.600586	2115.272705	96.185196
797.018860	1099.512573	2160.504395	2124.004883	96.559868
797.328308	1100.222412	2166.117920	2126.693604	96.301300
797.637756	1098.953369	2165.515625	2134.156494	97.059792
797.947205	1098.738403	2166.655518	2134.006348	96.942726
798.256470	1097.942505	2161.364502	2134.586914	97.481941
798.565674	1098.243652	2157.278076	2131.318115	97.548714
798.874817	1099.125488	2148.309082	2122.994385	97.587204
799.183960	1098.501831	2141.921387	2113.143555	97.241966
799.493103	1098.480225	2131.447021	2099.765625	96.932968
799.802124	1101.749512	2121.531494	2088.667480	96.777351
800.111084	1102.265503	2105.830811	2078.816650	97.308182
800.419983	1103.319458	2098.023438	2067.159180	96.897141
800.728821	1102.846313	2086.774658	2057.244385	96.998741
801.037659	1104.997070	2080.709473	2045.328857	96.373871
801.346436	1102.781738	2071.482666	2038.037598	96.547432
801.655151	1102.953979	2065.804443	2029.326660	96.211479
801.963745	1103.642090	2057.674316	2017.389771	95.777443
802.272400	1102.201050	2050.490479	2009.087769	95.633957
802.580933	1102.201050	2039.693359	1998.871216	95.645599
802.889404	1100.630981	2028.745972	1994.699097	96.331612
803.197815	1099.082520	2021.282837	1986.977417	96.280045
803.506226	1099.297607	2016.185425	1978.933472	95.937134
803.814575	1100.566528	2007.926147	1975.492065	96.425446
804.122864	1101.190308	2004.979614	1972.395020	96.394669
804.431030	1100.007324	2001.473877	1970.824951	96.600105
804.739197	1102.201172	2001.990112	1970.093628	96.455116
805.047241	1102.416138	2005.754028	1974.524292	96.542854
805.355408	1101.426758	2007.345703	1980.567993	97.044136
805.663391	1099.146973	2007.990601	1982.998413	97.250114
805.971313	1099.168457	2010.550049	1987.235474	97.441841
806.279175	1098.286621	2015.131226	1988.719482	97.119278
806.587036	1097.641479	2015.045410	1993.730957	97.676659
806.894836	1098.566284	2019.046021	1998.247681	97.740486
807.202576	1098.351074	2019.497314	1994.655884	97.303207
807.510193	1096.888550	2016.873535	1994.720337	97.592003
807.817810	1095.210938	2012.937622	1992.096436	97.729042
808.125427	1093.791504	2003.044067	1987.966797	98.341797
808.432922	1094.114136	1993.773804	1979.600098	98.424545
808.740295	1094.587280	1982.503540	1970.846191	98.687111
809.047729	1097.576904	1975.276978	1964.458496	98.767403
809.355103	1097.039185	1967.017944	1954.500366	98.561165
809.662415	1098.329590	1958.005981	1942.584839	98.206169
809.969604	1100.652466	1948.585449	1933.250366	98.191475
810.276794	1098.867310	1934.863403	1923.614746	98.654457
810.583923	1098.996460	1925.744141	1917.463257	98.998375
810.890991	1101.254761	1915.011597	1909.010620	99.262558
811.197998	1102.093628	1908.214844	1898.944946	98.850060
811.505005	1103.018433	1904.429321	1889.825684	98.177757
811.811829	1101.706421	1894.557129	1883.652832	98.624672
812.118713	1101.899902	1888.190918	1874.296875	98.232964
812.425537	1099.835205	1879.695313	1865.779663	98.215622
812.732300	1098.222168	1872.963257	1859.241089	98.228806
813.038940	1097.684448	1866.187988	1857.606567	98.883362
813.345581	1098.845825	1863.585571	1851.928467	98.475677
813.652100	1099.060913	1860.918823	1846.637451	98.125458
813.958740	1097.426270	1856.810913	1839.367676	97.702980
814.265137	1096.953125	1852.681152	1835.066040	97.669121
814.571533	1097.921021	1844.830811	1832.312988	98.324051
814.877930	1098.329590	1838.356934	1829.688965	98.828697
815.184265	1099.039429	1836.184448	1823.365356	98.260979
815.490540	1097.770386	1834.356323	1823.795654	98.566269
815.796692	1097.254150	1834.635864	1824.290527	98.597015
816.102844	1099.211426	1837.539551	1826.527344	98.508492
816.408936	1100.523438	1839.324341	1827.516724	98.401787
816.714966	1099.211426	1841.475098	1827.193848	98.075989
817.020935	1100.673950	1842.270996	1830.613770	98.428093
817.326843	1103.964722	1845.712402	1834.743652	98.521233
817.632690	1102.158081	1852.294067	1835.948120	97.820938
817.938477	1101.835449	1856.961304	1837.324585	97.399544
818.244263	1101.792480	1867.629272	1843.992065	96.913544
818.549988	1100.760010	1873.328857	1855.089966	97.639191
818.855652	1103.470093	1885.846558	1866.704346	97.553322
819.161194	1103.706665	1902.515503	1885.007813	97.808273
819.466797	1103.771118	1925.163330	1909.290283	98.067543
819.772278	1103.255005	1952.435425	1939.659668	98.495522
820.077698	1102.738770	1988.138794	1977.814941	98.833992
820.383057	1101.813843	2028.810669	2018.508301	98.888626
820.688354	1098.673706	2080.752441	2073.052734	99.215981
820.993652	1101.663330	2157.772705	2151.406494	99.397202
821.298828	1101.684814	2304.586670	2303.726563	99.928497
821.604004	1100.630981	2572.469482	2583.696777	100.762810
821.909058	1099.835205	2981.638184	2998.220947	100.881218
822.214111	1096.953125	3465.762695	3479.183838	100.566574
822.519165	1097.985474	3929.153320	3951.414307	100.786278
822.824036	1096.824097	4320.793457	4344.731934	100.742516
823.128906	1095.361450	4639.757813	4667.610840	100.785835
823.433716	1096.178833	4895.488281	4924.803711	100.771599
823.738525	1094.673340	5104.998047	5133.302734	100.705795
824.043213	1094.049683	5264.351074	5295.128906	100.738022
824.347900	1090.887817	5364.987793	5399.378418	100.804626
824.652466	1090.414551	5375.397949	5406.755859	100.731812
824.957031	1093.103149	5241.897461	5263.469238	100.519951
825.261536	1093.318237	4947.731445	4963.625488	100.412361
825.565979	1093.167725	4563.447266	4578.223145	100.425781
825.870300	1095.705688	4180.711426	4188.045410	100.237732
826.174622	1097.125122	3872.071045	3880.523438	100.304604
826.478821	1098.157593	3660.776367	3664.883789	100.160286
826.783142	1096.867188	3533.771240	3532.330322	99.940872
827.087280	1097.469482	3464.859375	3460.837646	99.830116
827.391357	1099.361938	3414.552246	3409.239746	99.770538
827.695435	1101.211670	3371.278320	3363.879150	99.674057
827.999451	1102.416138	3325.917725	3317.421875	99.617920
828.303406	1102.179565	3276.857910	3273.050537	99.824936
828.607239	1101.964478	3237.540771	3229.410400	99.619286
828.911011	1102.459106	3190.309326	3185.061035	99.748642
829.214844	1099.942749	3143.464844	3135.485352	99.609520
829.518616	1098.609375	3076.682617	3066.036133	99.461777
829.822205	1098.781372	2972.583496	2958.043945	99.224060
830.125793	1098.673706	2829.640869	2818.650635	99.365082
830.429382	1099.168457	2664.308838	2655.856201	99.459946
830.732849	1098.824341	2509.278564	2500.632568	99.387009
831.036316	1096.824097	2377.025635	2369.347412	99.400230
831.339661	1096.651978	2268.861816	2261.290771	99.354118
831.642944	1093.748413	2178.850830	2165.988525	98.814644
831.946228	1096.286377	2102.174561	2088.344727	98.625114
832.249512	1098.222046	2045.307129	2032.509766	98.648766
832.552673	1099.082275	2010.528564	1996.096924	98.416618
832.855774	1102.932373	1996.849487	1983.364014	98.491417
833.158813	1104.997192	2013.561401	2001.990112	98.726418
833.461731	1103.921753	2059.653076	2051.265137	99.122353
833.764771	1103.900269	2119.768066	2113.552246	99.388130
834.067627	1103.104492	2185.711914	2179.968994	99.469528
834.370422	1102.975464	2241.912354	2237.911621	99.648727
834.673157	1101.663452	2288.176025	2286.842285	99.887589
834.975891	1101.900024	2330.245850	2329.342529	99.926460
835.278564	1098.308105	2362.443115	2365.604980	100.250122
835.581177	1096.910156	2382.402588	2382.897461	100.038498
835.883728	1095.985229	2384.703857	2390.425537	100.443985
836.186218	1092.802002	2366.636963	2374.079102	100.584229
836.488647	1090.307129	2323.083252	2331.622314	100.692673
836.791077	1092.092285	2254.881348	2261.054443	100.530884
837.093384	1090.586792	2176.441650	2178.076416	100.150551
837.395630	1090.737305	2090.258789	2091.850586	100.159256
837.697815	1093.017090	2016.034790	2014.271118	99.808922
838.000061	1094.286255	1949.897705	1944.133301	99.326279
838.302124	1096.006714	1888.363281	1882.985962	99.321350
838.604126	1098.996338	1832.979980	1825.925049	99.038818
838.906128	1098.566284	1788.243042	1782.220825	99.126808
839.208069	1100.910645	1753.615112	1743.441772	98.441353
839.510010	1100.050293	1732.945801	1717.696777	97.590591
839.811829	1101.061157	1722.105835	1701.307495	96.651070
840.113586	1101.985962	1716.105103	1691.951660	96.066978
840.415222	1102.351685	1711.566895	1690.661011	96.568390
840.716919	1102.050537	1712.921875	1688.918823	96.070686
841.018555	1100.630981	1710.857056	1688.036987	96.260391
841.320068	1100.523560	1709.136353	1687.413330	96.430733
841.621521	1097.641357	1705.630737	1684.402222	96.508408
841.922974	1097.512329	1703.781128	1682.638672	96.512695
842.224365	1096.221802	1698.167480	1677.885254	96.630554
842.525635	1095.727173	1688.209351	1666.464722	96.329910
842.826965	1097.619873	1671.691040	1651.968262	96.564400
843.128174	1098.673706	1646.139526	1629.019043	96.872772
843.429260	1097.447754	1618.781250	1605.059082	97.367874
843.730408	1101.663208	1595.208496	1576.948120	96.300163
844.031433	1103.362427	1574.797241	1552.601074	95.291786
844.332397	1105.384277	1555.224976	1531.974731	94.831451
844.633362	1105.083130	1538.384277	1512.230469	93.964058
844.934204	1106.029419	1523.844604	1497.067261	93.591103
845.235046	1107.234009	1509.713989	1482.549316	93.250679
845.535828	1108.266357	1497.755371	1468.612061	92.517555
845.836487	1108.546021	1485.108521	1460.912231	93.574432
846.137146	1107.642700	1474.763428	1451.125977	93.561394
846.437744	1105.556396	1465.708496	1443.447754	93.819069
846.738281	1105.147583	1457.642944	1434.822998	93.526169
847.038757	1102.179565	1449.856934	1427.897461	93.683952
847.339172	1099.749146	1439.275024	1423.187134	95.261658
847.639526	1098.329590	1433.338867	1418.304810	95.512344
847.939819	1097.748901	1427.101563	1414.304321	96.114426
848.240112	1097.512207	1421.896606	1408.518677	95.875900
848.540283	1096.479980	1416.369141	1402.711426	95.730484
848.840393	1097.533813	1413.573120	1400.388550	95.828186
849.140564	1094.888428	1410.583374	1394.925659	95.040237
849.440552	1096.888672	1405.034302	1391.484375	95.602753
849.740540	1097.082153	1402.818970	1388.301147	95.251526
850.040405	1098.910400	1400.259644	1387.548340	95.781868
850.340210	1097.985596	1397.183838	1385.160889	95.981613
850.640137	1098.695435	1395.613770	1382.730469	95.660995
850.939819	1098.652344	1392.194092	1380.923828	96.160591
851.239502	1096.910156	1388.193481	1379.633301	97.061218
851.539185	1096.178955	1387.333130	1375.933960	96.084831
851.838745	1095.748779	1385.676880	1375.353271	96.439255
852.138245	1094.458130	1379.504272	1372.643311	97.593033
852.437744	1095.920776	1376.944824	1369.460083	97.336617
852.737122	1094.608643	1377.912598	1365.567261	95.642372
853.036499	1095.641113	1375.912354	1364.792847	96.032593
853.335815	1094.802246	1372.449585	1362.039917	96.250755
853.635010	1095.963623	1369.954712	1360.813965	96.663849
853.934204	1095.899170	1371.395630	1359.673950	95.745255
854.233276	1095.985229	1372.707886	1357.286621	94.427177
854.532410	1095.791748	1372.428223	1355.931519	94.036682
854.831482	1096.157349	1368.943848	1354.791504	94.811935
855.130371	1094.974487	1366.298340	1353.479614	95.275490
855.429260	1096.049927	1364.212158	1349.780151	94.618179
855.728088	1094.479736	1360.727783	1348.532837	95.419708
856.026855	1094.221558	1355.888550	1348.984253	97.361420
856.325623	1094.264526	1354.361450	1345.801147	96.708801
856.624329	1094.737793	1354.124878	1342.703979	95.596970
856.922913	1095.124878	1352.404175	1339.456177	94.967339
857.221436	1097.426270	1348.661743	1336.531128	95.171616
857.519958	1097.727417	1345.715088	1335.391113	95.836899
857.818420	1097.942383	1343.327759	1333.218872	95.880402
858.116821	1099.856567	1341.951172	1333.713745	96.597435
858.415161	1102.179565	1343.241699	1330.853149	94.860847
858.713379	1102.738770	1342.553589	1331.605957	95.434967
859.011658	1107.018799	1343.542847	1329.949707	94.252960
859.309814	1108.115723	1343.306274	1327.626831	93.333305
859.607910	1107.470581	1341.456543	1327.433228	94.006767
859.905945	1108.868652	1340.897339	1326.314941	93.715263
860.203979	1107.707153	1340.209106	1326.465332	94.088745
860.501953	1107.879272	1338.531494	1325.174927	94.209221
860.799744	1107.707153	1335.713989	1324.207031	94.953239
861.097656	1109.642822	1335.950439	1324.615723	94.991455
861.395325	1109.513794	1336.337646	1322.680054	93.978767
861.693115	1108.416870	1335.090088	1321.626099	94.060173
861.990784	1108.804199	1335.434326	1322.378906	94.239326
862.288330	1107.384521	1333.261963	1323.647827	95.743652
862.585815	1104.739136	1334.401855	1323.131714	95.092743
862.883301	1106.244629	1334.294434	1324.594238	95.746460
863.180786	1106.072632	1332.702881	1322.636963	95.558441
863.478149	1107.018799	1330.745605	1320.421753	95.385506
863.775452	1105.319824	1330.272339	1319.862427	95.372398
864.072693	1108.072876	1331.455200	1316.593262	93.346863
864.369873	1109.750366	1331.390747	1316.636353	93.343094
864.667114	1108.997681	1328.680664	1317.475098	94.899208
864.964111	1108.223511	1327.970947	1317.367554	95.174736
865.261169	1106.653198	1327.347168	1315.367310	94.571732
865.558105	1105.190796	1328.938843	1314.119873	93.376938
865.855042	1105.362793	1327.261230	1311.667847	92.972740
866.151917	1103.878662	1326.099731	1307.366333	91.569923
866.448730	1100.652466	1325.863159	1306.742554	91.509903
866.745422	1102.373047	1327.454590	1306.140381	90.530449
867.042114	1100.781616	1327.583862	1306.828613	90.848747
867.338806	1096.609009	1324.422241	1305.021973	91.484131
867.635376	1094.673218	1321.066895	1303.580933	92.276306
867.931824	1096.458496	1322.765991	1302.010864	90.828796
868.228271	1096.781128	1320.077515	1301.129028	91.514198
868.524658	1096.307861	1319.561401	1300.698853	91.551064
868.821045	1098.824341	1318.120361	1300.376099	91.908531
869.117310	1098.458618	1315.474731	1303.408936	94.440140
869.413574	1096.888550	1314.958740	1303.451782	94.723274
869.709717	1097.856567	1312.205566	1304.548706	96.427856
870.005859	1095.038940	1308.957886	1307.387817	99.266045
870.301880	1096.437012	1308.463257	1305.925293	98.802994
870.597900	1095.490601	1308.334106	1309.452515	100.525459
870.893860	1095.813232	1311.990479	1308.936401	98.587234
871.189636	1092.371948	1311.753906	1308.699829	98.607872
871.485535	1092.845093	1311.108643	1310.786011	99.852180
871.781311	1092.006348	1310.269897	1310.979614	100.325165
872.077026	1090.264160	1310.700073	1310.420410	99.873131
872.372681	1091.963379	1311.818481	1310.312988	99.315231
872.668274	1093.210815	1312.807861	1312.743530	99.970703
872.963806	1092.715942	1314.592896	1316.421387	100.824104
873.259338	1093.275269	1318.679565	1316.012695	98.816849
873.554688	1093.812988	1319.346191	1316.206177	98.607735
873.850098	1096.695190	1320.507813	1315.087769	97.578308
874.145447	1096.501465	1318.335449	1315.926636	98.914139
874.440674	1100.265503	1317.582520	1313.926270	98.317551
874.735840	1099.362183	1320.335693	1312.377686	96.398659
875.031006	1101.577393	1323.110107	1312.291626	95.116531
875.326050	1100.437378	1323.970581	1311.323730	94.342293
875.621094	1101.190186	1325.389893	1308.592407	92.507805
875.916077	1103.599121	1325.583618	1306.828735	91.551262
876.210999	1106.502686	1326.917114	1305.473755	90.271347
876.505798	1107.363037	1322.895142	1304.742310	91.577667
876.800598	1106.997192	1321.776855	1306.032837	92.669685
877.095337	1104.007690	1322.077881	1305.495117	92.395676
877.390015	1106.201538	1323.088745	1302.699097	90.598961
877.684692	1105.728516	1322.335938	1304.355103	91.698883
877.979187	1107.470581	1319.884033	1305.645630	93.296844
878.273804	1105.534790	1319.862549	1307.215698	94.099297
878.568237	1106.136963	1322.701660	1310.441895	94.338982
878.862610	1103.061401	1325.884766	1314.786621	95.019310
879.156921	1100.889160	1330.896118	1319.324707	94.969101
879.451172	1098.071533	1337.219604	1322.981079	94.046150
879.745422	1098.759888	1348.382202	1332.487671	93.632568
880.039612	1097.555298	1361.480591	1345.607544	93.985779
880.333679	1098.587769	1381.999146	1364.792603	93.928772
880.627686	1097.017578	1415.164673	1398.710938	94.828262
880.921692	1096.221802	1469.020752	1454.674805	96.151825
881.215698	1096.350830	1556.386353	1539.029419	96.227043
881.509460	1099.362183	1671.239380	1657.732300	97.638115
881.803345	1099.469604	1812.289063	1801.535156	98.491356
882.097046	1101.512817	1959.898804	1952.177368	99.100471
882.390808	1102.115112	2098.131104	2093.528320	99.537880
882.684448	1103.685059	2225.781250	2219.973877	99.482452
882.978027	1101.082642	2336.439941	2330.890869	99.550812
883.271545	1102.566772	2432.086426	2425.784424	99.525993
883.565002	1103.147583	2508.117432	2501.299072	99.514694
883.858398	1102.588379	2560.855225	2556.445557	99.697609
884.151733	1101.211670	2581.567383	2573.351074	99.444977
884.445068	1100.846069	2557.413818	2548.509521	99.388680
884.738281	1099.233032	2489.964600	2476.220947	99.011765
885.031433	1099.168335	2383.198486	2366.938477	98.733673
885.324585	1100.738403	2262.624268	2243.181396	98.326614
885.617676	1098.738281	2142.071777	2122.219971	98.097275
885.910645	1097.576904	2026.401489	2009.754272	98.207710
886.203552	1099.168457	1921.829590	1904.536987	97.897964
886.496521	1099.942749	1824.979004	1806.353027	97.431030
886.789368	1100.673950	1740.645996	1721.094971	96.945023
887.082153	1102.760254	1661.023071	1642.182007	96.625053
887.374817	1103.728149	1595.316040	1577.292236	96.333557
887.667480	1103.577637	1537.825073	1522.038208	96.364548
887.960083	1104.222900	1492.916382	1478.548706	96.303596
888.252625	1103.642212	1455.427734	1445.577026	97.199799
888.545166	1103.190552	1428.241699	1417.960571	96.837074
888.837524	1105.599487	1404.969849	1394.710449	96.573006
889.129883	1107.255493	1386.171875	1374.880127	95.951569
889.422241	1106.696411	1371.417358	1357.931885	94.905777
889.714478	1093.511841	1322.292847	1349.973877	112.099358
890.006714	1107.707153	1357.544556	1329.863770	88.920479
890.298767	1110.072998	1317.324585	1319.217407	100.913300
890.590881	1113.858398	1319.453735	1301.709717	91.369446
890.882935	1094.694824	1328.207642	1292.955811	84.903687
>>>>>End Processed Spectral Data<<<<<
