Jaz Data File
++++++++++++++++++++++++++++++++++++
Date: Thu Dec 19 19:55:27 2019
User: jaz
Dark Spectrum Present: Yes
Reference Spectrum Present: Yes
Processed Spectrum Present: Yes
Spectrometers: JAZA2928
Integration Time (usec): 32200 (JAZA2928)
Spectra Averaged: 10 (JAZA2928)
Boxcar Smoothing: 5 (JAZA2928)
Correct for Electrical Dark: No (JAZA2928)
Strobe/Lamp Enabled: Yes (JAZA2928)
Correct for Detector Non-linearity: No (JAZA2928)
Correct for Stray Light: No (JAZA2928)
Number of Pixels in Processed Spectrum: 2048
>>>>>Begin Processed Spectral Data<<<<<
W	D	R	S	P
190.104553	0.000000	0.000000	0.000000	0.000000
190.488098	0.000000	0.000000	0.000000	0.000000
190.871613	1222.216064	1221.506226	1204.235352	2533.069580
191.255096	1238.540649	1233.335571	1234.755127	72.727486
191.638535	0.000000	0.000000	0.000000	0.000000
192.021942	1036.773560	1030.450195	1026.514282	162.243973
192.405334	1155.648560	1147.669067	1143.668579	150.134628
192.788696	1274.652466	1262.909058	1258.951660	133.698883
193.172012	1281.298462	1269.963745	1266.393433	131.498917
193.555313	1285.621704	1275.921387	1270.028198	160.752533
193.938568	1287.686401	1279.212036	1275.900024	139.082718
194.321793	1290.460938	1281.040405	1278.007813	132.191315
194.704987	1289.019897	1284.245117	1281.234009	163.062759
195.088150	1289.234985	1288.267090	1284.739746	464.434357
195.471298	1289.493042	1288.654419	1284.352661	612.954895
195.854401	1289.772705	1286.008911	1280.416748	248.577820
196.237457	1290.568481	1284.460205	1278.868042	191.550598
196.620499	1288.439331	1282.847168	1277.061401	203.462051
197.003494	1284.438721	1283.922485	1276.652832	1508.205200
197.386475	1282.524536	1283.363403	1272.738403	-1166.589111
197.769424	1281.212402	1279.771484	1272.523315	603.024414
198.152344	1276.953857	1280.287720	1271.964111	-149.668625
198.535217	1276.007568	1284.933472	1272.200684	-42.649853
198.918076	1276.867920	1284.051636	1270.372559	-90.417847
199.300903	1277.900269	1285.406616	1268.910034	-119.768425
199.683670	1277.362671	1288.159668	1268.823853	-79.085121
200.066422	1276.029175	1290.396362	1270.566040	-38.025082
200.449142	1272.996338	1293.257080	1272.200684	-3.927074
200.831848	1272.308105	1295.923950	1272.974854	2.823308
201.214508	1273.082520	1297.494019	1274.394409	5.374064
201.597137	1270.372437	1297.322144	1277.362549	25.937618
201.979736	1270.437012	1300.462280	1276.803345	21.203251
202.362274	1269.383057	1301.989380	1276.222656	20.976297
202.744827	1266.500977	1300.075073	1276.523804	29.852858
203.127319	1266.672974	1301.387085	1278.395020	33.767380
203.509796	1265.511597	1299.752441	1278.093872	36.746391
203.892227	1264.479126	1296.504761	1280.309082	49.429016
204.274643	1262.263794	1295.128174	1280.072510	54.188503
204.657013	1263.597534	1293.515137	1275.749512	40.618153
205.039352	1263.640503	1292.095581	1273.297485	33.937641
205.421661	1264.092163	1289.751221	1271.340332	28.247993
205.803940	1264.909424	1291.364380	1268.028076	11.788537
206.186188	1265.898804	1292.547241	1267.318237	5.326517
206.568405	1264.973755	1292.353638	1264.672852	-1.098994
206.950592	1264.758911	1290.504028	1261.123901	-14.119220
207.332748	1262.328491	1288.654297	1257.123535	-19.771307
207.714859	1261.661621	1287.793945	1257.015869	-17.777798
208.096939	1260.478760	1288.116577	1254.564087	-21.400652
208.478989	1260.220581	1289.772583	1252.004395	-27.802469
208.861008	1258.392456	1290.697388	1254.434937	-12.250512
209.243011	1256.542847	1291.041504	1255.811401	-2.120214
209.624969	1254.563965	1292.740723	1255.144653	1.521052
210.006897	1256.112671	1290.503906	1257.618164	4.377549
210.388794	1252.155273	1290.288940	1258.822754	17.484499
210.770645	1254.585693	1292.611816	1258.091431	9.219287
211.152481	1253.273560	1292.353638	1259.661621	16.346083
211.534286	1252.133789	1291.041626	1259.080811	17.855070
211.916061	1251.208862	1291.536255	1260.328247	22.613375
212.297791	1251.488403	1293.773193	1261.167114	22.889343
212.679489	1250.240967	1292.418213	1261.769287	27.333033
213.061157	1249.832275	1292.224731	1261.618774	27.803293
213.442795	1248.907471	1290.891113	1260.779907	28.278719
213.824402	1249.208618	1290.891113	1262.672485	32.301010
214.205963	1249.251587	1292.998901	1263.511230	32.595470
214.587524	1250.778687	1292.697754	1263.016724	29.194441
214.969025	1250.004395	1290.955688	1264.350098	35.031136
215.350510	1251.638916	1293.730347	1265.102905	31.987484
215.731949	1254.628540	1297.343628	1265.769653	26.082384
216.113358	1253.961792	1301.021484	1266.479492	26.599623
216.494736	1254.542603	1302.505493	1267.167725	26.322687
216.876083	1258.156006	1306.893066	1269.211060	22.683054
217.257401	1258.543091	1309.237427	1270.135864	22.867985
217.638702	1260.457275	1314.420898	1273.254517	23.714571
218.019943	1260.607910	1316.421265	1273.017944	22.234882
218.401169	1260.048706	1319.152710	1273.426636	22.634558
218.782349	1262.521973	1321.927246	1275.362305	21.614801
219.163498	1263.059692	1323.755371	1275.835449	21.048874
219.544632	1262.479004	1325.282593	1278.373413	25.308123
219.925705	1262.070313	1328.229248	1280.631714	28.055775
220.306778	1261.704712	1329.971313	1280.158691	27.032223
220.687805	1260.328247	1330.100464	1278.588501	26.171240
221.068802	1259.102417	1331.304810	1278.631592	27.047823
221.449738	1259.575439	1335.176270	1279.599487	26.486546
221.830673	1260.844482	1340.144653	1280.094116	24.274391
222.211563	1260.564819	1345.908691	1283.406250	26.763996
222.592438	1260.005615	1350.704956	1285.363525	27.958208
222.973267	1257.661133	1356.189453	1287.686401	30.473745
223.354065	1257.489136	1360.684570	1289.579224	31.096422
223.734848	1257.983765	1367.545776	1289.256592	28.543495
224.115555	1257.058838	1371.632324	1291.149170	29.754120
224.496262	1259.274292	1378.923584	1293.257080	28.401997
224.876923	1259.166748	1387.118164	1297.322021	29.820126
225.257568	1258.413940	1396.839844	1301.085938	30.826599
225.638168	1257.467651	1405.399902	1304.140137	31.549906
226.018723	1255.510376	1415.358154	1306.979248	32.198677
226.399277	1256.671875	1429.618042	1310.054810	30.866793
226.779785	1256.284668	1448.308594	1314.184326	30.152315
227.160263	1256.564331	1469.364868	1317.345947	28.562717
227.540695	1255.811523	1498.056519	1325.540527	28.784496
227.921112	1255.682495	1535.050659	1335.756958	28.662701
228.301483	1256.327637	1587.142944	1351.844849	28.873274
228.681824	1255.940552	1654.613770	1371.868896	29.078539
229.062134	1257.187988	1742.345215	1394.452271	28.292742
229.442413	1256.822388	1835.195313	1421.617065	28.492805
229.822647	1256.736450	1917.162231	1444.953247	28.499311
230.202881	1256.370850	1976.868774	1461.062744	28.409782
230.583054	1255.919067	2022.057129	1474.999878	28.595474
230.963196	1257.231079	2059.610352	1484.958130	28.381472
231.343292	1256.671875	2089.786133	1494.894897	28.594280
231.723404	1257.381592	2115.445068	1500.293335	28.309298
232.103439	1258.865601	2118.628174	1501.304199	28.198320
232.483459	1259.683105	2104.992188	1495.540161	27.901873
232.863434	1258.586060	2070.450195	1485.087280	27.898907
233.243393	1258.285034	2015.389771	1469.128174	27.848610
233.623306	1259.682983	1957.339478	1451.255127	27.459379
234.003174	1262.436035	1916.216064	1437.963135	26.848036
234.383041	1264.672852	1894.191772	1431.102051	26.437521
234.762848	1262.823120	1883.179688	1426.176636	26.332197
235.142639	1262.758667	1874.318359	1423.595703	26.299482
235.522385	1263.877075	1869.134888	1421.165283	25.986977
235.902115	1263.984619	1861.284424	1419.315552	26.005522
236.281799	1261.790894	1867.285156	1419.036011	25.969711
236.661438	1260.521851	1877.587524	1420.713623	25.960247
237.041077	1259.962646	1886.642456	1422.326660	25.908607
237.420654	1258.521606	1899.052368	1424.111938	25.852051
237.800217	1259.618530	1908.171875	1425.854126	25.631754
238.179733	1258.392456	1913.032715	1426.090698	25.616854
238.559219	1255.639526	1920.151855	1425.768066	25.602015
238.938690	1257.015991	1925.270630	1425.552979	25.220474
239.318100	1257.059082	1934.110840	1428.349121	25.299400
239.697510	1257.037476	1949.876099	1431.553833	25.188601
240.076859	1259.962524	1975.535156	1436.887817	24.724995
240.456177	1263.360840	2010.206177	1447.276245	24.625635
240.835464	1266.350464	2052.361816	1459.815308	24.613493
241.214722	1268.243286	2118.499023	1474.892456	24.304354
241.593948	1271.835083	2203.584961	1498.723389	24.350775
241.973129	1272.007080	2313.103760	1524.855591	24.286747
242.352295	1273.104004	2449.937988	1559.311646	24.320137
242.731415	1274.028809	2594.773438	1596.047241	24.381582
243.110519	1276.136597	2738.920410	1632.481934	24.360765
243.489578	1279.879028	2854.095703	1661.044434	24.213020
243.868607	1280.524292	2936.471680	1682.724609	24.288231
244.247604	1278.610107	2992.048340	1697.995239	24.476233
244.626541	1278.545654	3030.138916	1707.566406	24.493172
245.005493	1277.706665	3060.357910	1712.297974	24.378931
245.384369	1278.093872	3082.252930	1716.341675	24.290974
245.763229	1277.039917	3105.395264	1718.793457	24.161251
246.142059	1276.695801	3143.271240	1727.138672	24.132048
246.520859	1278.373413	3211.688232	1744.108521	24.089977
246.899612	1283.535278	3337.144531	1776.241699	23.992218
247.278336	1285.127075	3500.261475	1815.128174	23.926365
247.657043	1286.783081	3670.949219	1853.477051	23.769066
248.035690	1292.074097	3825.097412	1888.922363	23.562683
248.414322	1294.633545	3956.468994	1917.958130	23.417097
248.792908	1296.332642	4057.556885	1943.100830	23.423241
249.171478	1296.440308	4134.491211	1959.877075	23.376493
249.550003	1297.472656	4170.065430	1970.824585	23.440563
249.928482	1299.150269	4163.354980	1972.781738	23.518972
250.306961	1300.655762	4105.949707	1958.564941	23.452415
250.685364	1299.193237	3984.687500	1928.217529	23.423037
251.063782	1295.364746	3801.374268	1881.286987	23.380688
251.442123	1292.891357	3596.402344	1829.560059	23.297857
251.820450	1288.761841	3427.220215	1789.770020	23.428473
252.198761	1285.148438	3321.271729	1763.315308	23.484180
252.576996	1283.771973	3252.962402	1749.033936	23.627068
252.955246	1284.266724	3202.784180	1736.387207	23.566139
253.333420	1282.395508	3155.960938	1726.708618	23.714844
253.711578	1282.094360	3120.386719	1717.696777	23.696035
254.089706	1281.234009	3094.641602	1709.695801	23.627439
254.467804	1278.696167	3074.488281	1707.394409	23.872375
254.845871	1278.954224	3059.067383	1703.996094	23.877239
255.223877	1279.362915	3035.322754	1698.705078	23.881079
255.601898	1279.986572	3003.275635	1691.973022	23.906984
255.979828	1278.072266	2957.786133	1679.971558	23.926653
256.357727	1275.921509	2903.155518	1666.270996	23.988527
256.735657	1277.986328	2861.386719	1655.215576	23.823996
257.113525	1275.469849	2853.579346	1650.591675	23.770329
257.491333	1275.814087	2883.432617	1657.194580	23.723320
257.869110	1277.921875	2942.601318	1671.389893	23.636263
258.246887	1279.448975	3030.805664	1692.575317	23.588932
258.624573	1278.932617	3157.036133	1720.944458	23.535009
259.002289	1279.792969	3341.295898	1760.282471	23.307728
259.379944	1281.255493	3600.080322	1821.408325	23.294250
259.757538	1282.567505	3934.035400	1896.686646	23.161478
260.135162	1288.331665	4299.199219	1982.718872	23.062695
260.512665	1292.977417	4625.433105	2060.556396	23.033434
260.890228	1291.622437	4865.914551	2118.004395	23.120157
261.267700	1292.805298	5017.804199	2154.976807	23.145550
261.645142	1295.235718	5103.686035	2175.194336	23.105425
262.022552	1294.805542	5155.219238	2184.937256	23.057936
262.399994	1293.084839	5181.330078	2189.346436	23.050543
262.777313	1296.268066	5170.166992	2183.152100	22.893835
263.154602	1296.010010	5093.103516	2167.451416	22.950222
263.531921	1295.536865	4939.601074	2130.909180	22.924192
263.909149	1293.988281	4691.892578	2073.913086	22.953114
264.286377	1290.611450	4405.685547	2006.421021	22.978893
264.663574	1287.385254	4147.826172	1944.219482	22.962692
265.040710	1289.364136	3970.470947	1898.514893	22.720121
265.417816	1288.245605	3871.103271	1872.468384	22.619240
265.794891	1288.611206	3844.691650	1861.692993	22.420334
266.171936	1288.976929	3865.167236	1864.876465	22.354696
266.548950	1289.170532	3915.560791	1873.242920	22.238600
266.925934	1287.621948	3973.847412	1886.190918	22.282900
267.302887	1286.912231	4037.941162	1897.826538	22.206758
267.679810	1286.202515	4101.884766	1908.236450	22.091766
268.056671	1288.869385	4178.711426	1924.862183	22.007874
268.433502	1289.901733	4260.613770	1942.584839	21.970596
268.810333	1290.138184	4344.064453	1956.887451	21.832527
269.187073	1288.159546	4420.568848	1972.674316	21.852661
269.563843	1291.127808	4495.244629	1985.127686	21.659632
269.940521	1290.525513	4550.649414	1997.171997	21.675447
270.317200	1290.826538	4602.333496	2008.055176	21.658680
270.693848	1291.837402	4668.664063	2022.401123	21.634623
271.070435	1295.063599	4802.809570	2046.490234	21.421923
271.447021	1298.569458	4975.347168	2081.806396	21.302265
271.823547	1300.892456	5153.003418	2118.262451	21.218756
272.200043	1301.236450	5297.623535	2149.234131	21.219107
272.576538	1301.731201	5417.380371	2172.011230	21.145630
272.952972	1303.602417	5524.404297	2194.938965	21.117706
273.329346	1305.452026	5626.266602	2212.661133	20.996252
273.705688	1305.495117	5704.082520	2229.480713	21.006416
274.082062	1306.118896	5763.487793	2240.879883	20.971136
274.458344	1304.914429	5788.759766	2245.568604	20.978739
274.834595	1307.861206	5770.413574	2239.503174	20.876886
275.210846	1304.936035	5690.102051	2222.597900	20.926502
275.587006	1301.774292	5586.046387	2196.229004	20.877636
275.963165	1300.913818	5493.390137	2175.861084	20.869461
276.339294	1300.182495	5446.760742	2161.515381	20.772137
276.715393	1300.763184	5423.337891	2155.342285	20.729258
277.091461	1301.064331	5414.713867	2153.987305	20.733973
277.467438	1302.591553	5411.982422	2155.342041	20.751265
277.843445	1302.526978	5416.176270	2157.428711	20.782076
278.219452	1303.602417	5431.188965	2160.719238	20.765570
278.595337	1304.226196	5454.288574	2164.913330	20.739136
278.971191	1304.570313	5486.980957	2170.268799	20.698553
279.347046	1307.344849	5512.983887	2174.850342	20.627197
279.722870	1309.753784	5537.567871	2181.732666	20.624817
280.098663	1310.377441	5561.312988	2187.389404	20.631035
280.474396	1310.979614	5597.123535	2193.433350	20.588522
280.850098	1312.055054	5649.495605	2200.251465	20.477432
281.225800	1313.108887	5724.945801	2216.188721	20.469475
281.601440	1313.517578	5833.131348	2237.460205	20.442955
281.977051	1313.797119	5982.203613	2264.280762	20.359917
282.352600	1314.700439	6137.964355	2293.552979	20.294403
282.728149	1317.496582	6282.090332	2321.814697	20.229612
283.103668	1317.475098	6392.448242	2343.430176	20.215971
283.479156	1319.604370	6480.501953	2362.120605	20.200289
283.854553	1319.668945	6564.039551	2377.541992	20.171593
284.229950	1320.851929	6661.018555	2392.855713	20.074350
284.605347	1322.895142	6765.247070	2413.718506	20.043234
284.980652	1320.787354	6863.861328	2432.408691	20.054239
285.355988	1320.916382	6953.184570	2445.334961	19.963869
285.731201	1319.260254	7031.666992	2457.874512	19.932304
286.106445	1319.776489	7098.621582	2471.983643	19.938364
286.481659	1320.228027	7166.027832	2483.748779	19.903534
286.856781	1320.464722	7232.853516	2493.879150	19.846706
287.231934	1318.894653	7298.947266	2504.460938	19.825348
287.607025	1316.464233	7346.716797	2511.149902	19.811537
287.982056	1316.894409	7365.557617	2514.311523	19.796392
288.357086	1315.732910	7357.599609	2513.881592	19.830770
288.732086	1311.667969	7326.048340	2508.719482	19.903156
289.107025	1310.850708	7290.688965	2503.256348	19.940434
289.481934	1310.571045	7261.221680	2496.395264	19.927641
289.856842	1311.818359	7236.639160	2492.157959	19.921946
290.231659	1311.022583	7237.713867	2491.620605	19.920019
290.606506	1311.689331	7248.296387	2493.707031	19.910662
290.981262	1312.184082	7264.535645	2497.255615	19.909300
291.355988	1309.947144	7285.590820	2506.267578	20.019943
291.730713	1311.646362	7312.411133	2513.365479	20.026100
292.105377	1310.377319	7339.360840	2519.667236	20.057941
292.480011	1310.484985	7357.492188	2524.312744	20.073198
292.854614	1312.549683	7364.181152	2526.592773	20.061419
293.229187	1313.861694	7380.162109	2534.529297	20.122110
293.603729	1313.517578	7405.820801	2550.273193	20.300297
293.978241	1312.506714	7443.051270	2568.899414	20.493982
294.352692	1314.033691	7473.033203	2587.546631	20.677269
294.727081	1313.603638	7494.950195	2610.022461	20.973080
295.101501	1311.560425	7516.952637	2634.778320	21.323679
295.475830	1314.722168	7571.195801	2664.029297	21.566576
295.850189	1317.367676	7669.617676	2706.679688	21.871180
296.224457	1320.572266	7832.454590	2767.353760	22.217562
296.598694	1323.067261	8046.718262	2838.997070	22.546230
296.972931	1324.938354	8301.458984	2920.641602	22.872480
297.347107	1326.938599	8538.541016	3000.845215	23.211298
297.721283	1328.874390	8714.519531	3064.014160	23.493408
298.095367	1331.175781	8806.853516	3106.471191	23.747618
298.469452	1331.648926	8820.446289	3134.668213	24.076220
298.843475	1328.057129	8795.217773	3149.702393	24.395420
299.217529	1329.046387	8756.138672	3155.036133	24.585527
299.591492	1328.444214	8698.583984	3152.735107	24.752460
299.965424	1325.196533	8618.014648	3149.121338	25.009876
300.339325	1323.841553	8485.374023	3126.322754	25.168932
300.713196	1320.120605	8301.758789	3094.620117	25.416664
301.087036	1318.830078	8080.785645	3052.399902	25.637108
301.460815	1318.313965	7865.405762	3007.856445	25.806000
301.834564	1318.830200	7684.758301	2972.368408	25.974817
302.208282	1315.969482	7537.729980	2944.988525	26.182606
302.582001	1314.270386	7416.811035	2919.480225	26.303961
302.955658	1316.012573	7311.185547	2895.713867	26.349554
303.329254	1312.506714	7221.174805	2880.034180	26.529287
303.702820	1310.958130	7142.068359	2871.194336	26.757103
304.076416	1310.807495	7075.995117	2857.321777	26.825047
304.449921	1307.430786	7021.515137	2847.299072	26.948645
304.823395	1309.603027	6969.917480	2839.448730	27.027575
305.196838	1308.527588	6920.384277	2830.243164	27.116081
305.570251	1308.183594	6865.559570	2821.188477	27.225166
305.943604	1304.828369	6805.509766	2813.208984	27.421703
306.316986	1304.312256	6761.246582	2807.315674	27.542999
306.690277	1306.420044	6728.404297	2804.541016	27.630493
307.063507	1305.581177	6712.079590	2807.165039	27.773685
307.436768	1305.989746	6721.134277	2812.370117	27.817917
307.809937	1307.258789	6748.900391	2824.973877	27.890759
308.183136	1308.011597	6803.165527	2842.115479	27.917397
308.556244	1310.054810	6877.411133	2871.387939	28.044426
308.929321	1309.172974	6967.895508	2902.596191	28.158709
309.302399	1310.226929	7060.530762	2934.041016	28.238754
309.675446	1309.043945	7157.489258	2964.152100	28.299969
310.048401	1308.054565	7253.113770	2991.123291	28.310379
310.421356	1309.237427	7348.910645	3018.739746	28.304550
310.794281	1307.839355	7451.095215	3050.098389	28.360516
311.167145	1308.248047	7564.163574	3082.575684	28.362398
311.539978	1312.119507	7661.917480	3112.428711	28.352228
311.912781	1313.324097	7733.152832	3133.872070	28.358202
312.285553	1312.012207	7749.498047	3145.722900	28.484888
312.658295	1312.399292	7722.591797	3139.055420	28.496120
313.031006	1312.227295	7670.456055	3123.290039	28.483763
313.403656	1311.839966	7615.524902	3107.997803	28.493774
313.776276	1313.603638	7565.497070	3093.845459	28.475243
314.148865	1316.313599	7539.773438	3090.791260	28.512720
314.521454	1316.442627	7537.837402	3094.511963	28.579916
314.893982	1316.958862	7538.117188	3092.727295	28.544016
315.266449	1319.109619	7502.563965	3085.156250	28.560843
315.638885	1316.851440	7438.685547	3070.143555	28.639982
316.011322	1317.281494	7355.319824	3046.506348	28.638853
316.383667	1318.270752	7282.773438	3023.385254	28.587706
316.756042	1318.722534	7224.507813	3005.899170	28.568203
317.128326	1319.754883	7172.802734	2993.123535	28.589697
317.500610	1316.872803	7118.904297	2978.885010	28.645351
317.872833	1315.517700	7058.530762	2964.066162	28.705288
318.245087	1312.592651	6980.606445	2937.460938	28.667332
318.617218	1311.775391	6885.283203	2909.715576	28.670279
318.989319	1309.839722	6806.929199	2887.067627	28.692055
319.361420	1307.043823	6756.320801	2871.452881	28.708563
319.733490	1306.484497	6723.543457	2856.870361	28.620436
320.105530	1303.193726	6701.368652	2851.858887	28.688681
320.477509	1298.741699	6679.085938	2843.148193	28.704603
320.849457	1295.622925	6653.877930	2833.060791	28.692884
321.221375	1294.181763	6644.543945	2823.618896	28.585674
321.593231	1295.364746	6637.381348	2818.026611	28.503504
321.965088	1295.988525	6641.230957	2814.800537	28.414278
322.336884	1297.451050	6650.199707	2816.907959	28.386480
322.708618	1298.461914	6680.289551	2819.704102	28.266275
323.080414	1300.526733	6712.143555	2829.232178	28.248590
323.452118	1301.537598	6778.215820	2843.900879	28.162386
323.823761	1302.053833	6891.305176	2873.603271	28.117352
324.195343	1303.752930	7021.881348	2905.865479	28.018127
324.566925	1308.140503	7158.586426	2943.956055	27.960527
324.938507	1310.484863	7291.462891	2983.896729	27.978901
325.310059	1310.893677	7398.078125	3014.911133	27.993525
325.681519	1313.496216	7515.812988	3044.463135	27.908392
326.052948	1312.979980	7614.276855	3074.940430	27.961870
326.424408	1312.786377	7704.826172	3098.018555	27.928989
326.795776	1312.786255	7749.067383	3115.719482	28.012033
327.167084	1309.667603	7759.735840	3113.138428	27.960491
327.538391	1308.957886	7717.257813	3100.556396	27.957470
327.909668	1310.183716	7621.181641	3074.209229	27.951609
328.280884	1310.743042	7526.180176	3040.935791	27.837025
328.652100	1311.216187	7433.007324	3011.749756	27.778366
329.023254	1311.689331	7353.792480	2983.079102	27.662384
329.394348	1310.377441	7294.752930	2963.807861	27.629122
329.765442	1308.334106	7218.937500	2945.031494	27.690868
330.136475	1307.710449	7146.906738	2919.673584	27.605907
330.507538	1307.065308	7068.682617	2894.724365	27.555788
330.878479	1305.237061	7011.600098	2875.560547	27.518814
331.249420	1306.183472	6968.970703	2864.118164	27.511801
331.620331	1307.000732	6957.249512	2859.687744	27.479975
331.991211	1306.032837	6973.101074	2865.709961	27.521763
332.362030	1306.054321	6997.232910	2872.958008	27.532146
332.732819	1303.387329	7032.440918	2882.400146	27.561495
333.103577	1303.451782	7069.478027	2893.390625	27.574255
333.474304	1304.312256	7093.954590	2902.789551	27.609257
333.845001	1305.193970	7117.806641	2908.962646	27.591185
334.215668	1306.075806	7138.390625	2915.242676	27.590534
334.586273	1307.280396	7167.339355	2921.630615	27.548361
334.956818	1307.753540	7190.611328	2924.383545	27.480350
335.327362	1309.108521	7225.347168	2931.223145	27.418005
335.697876	1309.818237	7243.090820	2940.084229	27.476675
336.068329	1310.441895	7256.706055	2941.762207	27.434374
336.438751	1310.312988	7261.888672	2947.268555	27.504574
336.809174	1313.345581	7257.523438	2947.892090	27.498278
337.179504	1315.646973	7261.846680	2951.763672	27.515333
337.549896	1316.485840	7286.837891	2960.625000	27.538395
337.920135	1315.797607	7324.413574	2971.551025	27.556318
338.290375	1315.668457	7372.655762	2985.918701	27.575594
338.660614	1316.980347	7418.403320	3000.973633	27.600010
339.030792	1318.636475	7470.968262	3012.717285	27.535587
339.400940	1318.249390	7504.671875	3024.611572	27.582375
339.771027	1317.582642	7537.944824	3029.687256	27.524195
340.141083	1319.088257	7578.401367	3038.828125	27.474897
340.511139	1319.712036	7612.470215	3047.990479	27.464561
340.881134	1318.528931	7659.206543	3055.518066	27.394377
341.251068	1318.141846	7686.134766	3062.874023	27.398462
341.621002	1319.733276	7708.438965	3064.938477	27.317039
341.990875	1323.131714	7728.937012	3067.175781	27.225992
342.360718	1325.304077	7735.474609	3066.164795	27.157791
342.730560	1324.400757	7744.852051	3069.563232	27.181307
343.100311	1326.293457	7763.907715	3076.574463	27.188349
343.470032	1328.272217	7813.010742	3087.543701	27.129414
343.839752	1330.057373	7885.707520	3104.277100	27.063976
344.209442	1330.982178	7960.534180	3128.709961	27.116882
344.579041	1331.993042	8052.932617	3150.411621	27.056017
344.948639	1334.509521	8144.105957	3181.813477	27.127949
345.318176	1334.853516	8244.891602	3208.375977	27.113056
345.687714	1334.552368	8335.805664	3234.508057	27.137365
346.057190	1333.756592	8412.267578	3257.220459	27.173285
346.426636	1331.971558	8482.621094	3274.383789	27.164137
346.796051	1332.552246	8530.927734	3288.557861	27.172876
347.165405	1330.508911	8543.187500	3294.042236	27.223358
347.534729	1331.261719	8527.056641	3289.611572	27.215199
347.904083	1331.498291	8478.491211	3276.900635	27.219872
348.273315	1331.261597	8410.589844	3255.199219	27.176840
348.642517	1330.874512	8338.624023	3233.411133	27.149038
349.011719	1329.304443	8267.605469	3212.225830	27.138077
349.380890	1329.691528	8203.016602	3193.879639	27.122070
349.749969	1329.261475	8157.311035	3179.834961	27.102518
350.119049	1329.390503	8122.855957	3170.909180	27.107206
350.488098	1330.616577	8108.423828	3170.435791	27.144756
350.857117	1329.541138	8104.294922	3167.768799	27.133497
351.226074	1331.283325	8127.136230	3171.661621	27.080902
351.595001	1330.100464	8150.601563	3184.179443	27.183912
351.963867	1329.304565	8194.585938	3201.170410	27.265684
352.332764	1331.240234	8246.764648	3215.581055	27.247982
352.701538	1330.745605	8309.115234	3237.111084	27.318207
353.070343	1332.810303	8385.533203	3259.264160	27.315039
353.439056	1333.756714	8478.707031	3282.944580	27.280636
353.807770	1335.348267	8577.084961	3311.291992	27.285496
354.176453	1337.864746	8670.364258	3340.585938	27.312941
354.545105	1340.381226	8772.077148	3367.600098	27.278011
354.913666	1344.833374	8899.576172	3402.593750	27.237993
355.282227	1346.661621	9039.055664	3444.233398	27.268127
355.650757	1349.651245	9191.590820	3481.635742	27.186953
356.019226	1352.554688	9350.427734	3527.189697	27.190166
356.387695	1353.350586	9525.352539	3576.572021	27.205347
356.756104	1359.179199	9727.140625	3633.503662	27.178957
357.124451	1362.641968	9968.611328	3700.178955	27.161810
357.492828	1364.685181	10213.868164	3775.177490	27.239716
357.861084	1369.115845	10435.530273	3838.863037	27.240616
358.229401	1372.191528	10625.790039	3890.675781	27.216270
358.597595	1372.944458	10758.193359	3928.508057	27.229576
358.965759	1374.062866	10865.517578	3959.866943	27.243496
359.333923	1377.073975	10958.734375	3988.945557	27.259071
359.702057	1379.246216	11091.374023	4026.584961	27.258072
360.070129	1382.429565	11249.199219	4068.697510	27.225407
360.438141	1384.451172	11443.826172	4126.382324	27.257471
360.806122	1385.612671	11654.196289	4187.895020	27.289860
361.174133	1389.699219	11906.572266	4262.656738	27.317602
361.542053	1394.022339	12192.563477	4343.914063	27.317501
361.909912	1397.442139	12476.599609	4427.580078	27.349895
362.277771	1399.184204	12736.912109	4503.396484	27.379494
362.645599	1402.862061	12921.149414	4561.425293	27.422161
363.013367	1404.152588	13021.571289	4592.396973	27.443655
363.381134	1404.346191	13047.337891	4602.763672	27.470751
363.748810	1400.732788	12986.578125	4592.741211	27.550930
364.116455	1398.990601	12855.375977	4557.488770	27.569759
364.484100	1396.818237	12650.535156	4502.429199	27.596312
364.851715	1394.904053	12370.671875	4423.902832	27.597147
365.219238	1388.322510	11973.160156	4310.598633	27.608133
365.586761	1382.493896	11498.027344	4178.926270	27.644934
365.954224	1378.321289	11039.109375	4046.092285	27.614424
366.321686	1372.342041	10633.854492	3932.508789	27.643074
366.689117	1367.481323	10359.626953	3853.294678	27.644276
367.056458	1363.287231	10173.711914	3798.621094	27.641504
367.423737	1361.437500	10042.621094	3758.508789	27.612263
367.791077	1363.050659	9931.187500	3724.203369	27.557367
368.158295	1360.985840	9845.670898	3703.491211	27.608629
368.525543	1359.157593	9765.295898	3675.767334	27.558550
368.892700	1357.910156	9695.201172	3655.227295	27.554720
369.259827	1353.995728	9637.989258	3641.139648	27.609198
369.626953	1353.866699	9598.737305	3627.503174	27.576374
369.994019	1351.758911	9565.443359	3613.695068	27.538628
370.361053	1352.275146	9548.214844	3605.973389	27.497742
370.728027	1352.189087	9533.718750	3602.015869	27.498850
371.094971	1351.780396	9534.988281	3604.317383	27.526333
371.461914	1352.769775	9558.130859	3609.500732	27.503128
371.828796	1351.737427	9594.414063	3616.039795	27.470472
372.195618	1350.339355	9626.719727	3620.642334	27.431108
372.562408	1351.974121	9658.831055	3629.869385	27.421865
372.929199	1351.586792	9693.179688	3640.644775	27.441500
373.295898	1355.501343	9733.291992	3648.753662	27.372997
373.662598	1356.060547	9780.587891	3661.636475	27.367422
374.029236	1356.576660	9817.689453	3676.992920	27.424479
374.395844	1356.877808	9856.899414	3686.521240	27.407501
374.762421	1355.823853	9897.225586	3694.134521	27.376194
375.128967	1357.114380	9936.629883	3703.426514	27.347837
375.495483	1354.533447	9986.249023	3719.278076	27.395998
375.861908	1355.931519	10070.731445	3742.980225	27.390747
376.228333	1357.974731	10203.887695	3776.962646	27.345823
376.594727	1358.942505	10389.137695	3831.571777	27.381794
376.961090	1361.545044	10614.305664	3895.967041	27.390980
377.327393	1363.480713	10855.839844	3965.566650	27.412426
377.693665	1365.072388	11066.941406	4023.337402	27.399515
378.059906	1364.427246	11233.047852	4071.601563	27.432144
378.426086	1365.932739	11330.974609	4101.626465	27.452908
378.792267	1369.825684	11394.444336	4125.113281	27.485210
379.158386	1371.030151	11416.447266	4132.425781	27.489107
379.524445	1369.976318	11407.844727	4126.124023	27.457500
379.890503	1369.309448	11373.172852	4116.961914	27.465912
380.256531	1369.072998	11302.153320	4098.400391	27.477150
380.622467	1364.900513	11182.784180	4065.600586	27.507967
380.988403	1360.878418	11019.000977	4022.541504	27.558804
381.354279	1356.146606	10836.203125	3970.707031	27.579588
381.720154	1352.726807	10673.344727	3924.572021	27.593075
382.085968	1351.909424	10543.047852	3885.879150	27.569704
382.451752	1349.995239	10486.180664	3870.328857	27.586277
382.817474	1345.026855	10469.597656	3863.188232	27.597589
383.183197	1343.693359	10503.063477	3874.910156	27.635271
383.548859	1345.500000	10561.652344	3891.406982	27.624403
383.914490	1344.467651	10627.725586	3910.248291	27.638796
384.280060	1345.672119	10690.206055	3929.540527	27.651121
384.645599	1349.844727	10754.623047	3947.069580	27.616014
385.011108	1351.522339	10825.126953	3963.695313	27.573168
385.376617	1353.823730	10908.878906	3988.064209	27.569078
385.742035	1354.684082	11003.621094	4008.905518	27.507914
386.107452	1356.727417	11107.333984	4036.951660	27.487768
386.472778	1357.028442	11198.656250	4059.535156	27.459957
386.838135	1359.932007	11293.549805	4084.377197	27.426516
387.203430	1361.437622	11367.687500	4104.250488	27.410997
387.568634	1361.286987	11435.739258	4125.070313	27.433582
387.933838	1362.233276	11474.819336	4139.760742	27.466043
388.299042	1361.329956	11511.188477	4152.450195	27.499104
388.664124	1358.791992	11539.451172	4163.053711	27.544992
389.029236	1358.705933	11556.485352	4166.946777	27.537767
389.394318	1358.598511	11564.163086	4167.097168	27.519287
389.759308	1359.050049	11561.776367	4175.334961	27.603258
390.124298	1359.931885	11585.113281	4182.776367	27.606791
390.489227	1360.405151	11632.730469	4202.133789	27.663927
390.854126	1363.179688	11712.761719	4226.695801	27.667940
391.218964	1363.287231	11838.283203	4261.732422	27.670132
391.583771	1363.588379	11981.677734	4296.510742	27.621939
391.948578	1364.190552	12133.137695	4336.042480	27.596495
392.313354	1365.201538	12250.250000	4368.261230	27.588848
392.678040	1366.061890	12350.002930	4393.426270	27.561729
393.042694	1366.363037	12448.102539	4418.353516	27.540718
393.407349	1366.793091	12559.469727	4451.390625	27.559071
393.771942	1366.276855	12693.099609	4487.395020	27.555109
394.136505	1365.739136	12809.715820	4525.743652	27.612818
394.501007	1365.158325	12885.081055	4544.413086	27.597883
394.865479	1362.362427	12878.089844	4544.843262	27.635952
395.229919	1360.469604	12786.056641	4519.807617	27.651428
395.594360	1360.104004	12648.211914	4488.943359	27.718016
395.958710	1358.168213	12487.438477	4446.250000	27.747387
396.323029	1359.523315	12344.819336	4406.847168	27.740025
396.687286	1358.146729	12222.093750	4370.713867	27.729950
397.051544	1360.039551	12111.457031	4344.581543	27.759520
397.415771	1359.179199	11980.452148	4304.382813	27.729290
397.779938	1358.318726	11827.401367	4260.506348	27.721506
398.144043	1355.673340	11671.833984	4208.908691	27.657921
398.508148	1356.469116	11518.610352	4164.967285	27.636871
398.872192	1356.189575	11394.616211	4128.791016	27.619881
399.236237	1355.350830	11314.026367	4104.810059	27.608683
399.600189	1356.189575	11257.115234	4087.517090	27.586588
399.964111	1356.856323	11216.551758	4077.128906	27.589823
400.328003	1354.425903	11190.957031	4072.096191	27.628342
400.691925	1356.275635	11172.675781	4068.912598	27.633724
401.055695	1353.866699	11166.674805	4060.954834	27.587292
401.419495	1353.544067	11164.954102	4064.051758	27.626078
401.783234	1353.888184	11182.396484	4068.009277	27.614782
402.146942	1355.823853	11181.772461	4069.342773	27.615849
402.510620	1354.533325	11216.336914	4078.139648	27.617731
402.874237	1354.339844	11263.202148	4090.507080	27.613335
403.237823	1355.866943	11339.016602	4109.821289	27.586027
403.601379	1355.888428	11444.148438	4138.340820	27.581095
403.964874	1355.372192	11595.048828	4175.829590	27.544399
404.328369	1356.146484	11759.886719	4218.824219	27.515852
404.691772	1357.630615	11933.800781	4265.432129	27.493900
405.055176	1357.501465	12084.485352	4312.018555	27.542849
405.418549	1358.426392	12229.471680	4352.432129	27.541105
405.781860	1359.200684	12337.485352	4387.876953	27.587881
406.145142	1360.426636	12448.811523	4422.612793	27.616159
406.508362	1362.254761	12518.819336	4444.034668	27.623018
406.871552	1361.136353	12561.362305	4453.605957	27.610781
407.234741	1361.867554	12562.030273	4459.305176	27.655289
407.597870	1360.792236	12520.647461	4449.067383	27.673075
407.960938	1362.340820	12456.339844	4436.270508	27.708040
408.323975	1362.663574	12370.886719	4413.879883	27.717611
408.686981	1360.727783	12293.264648	4394.975098	27.754284
409.049957	1361.416016	12241.559570	4380.004883	27.744017
409.412903	1363.007690	12215.985352	4371.293945	27.718533
409.775787	1364.405762	12229.450195	4372.004395	27.681419
410.138611	1363.459351	12273.197266	4380.994141	27.659094
410.501434	1364.298218	12328.452148	4393.598145	27.629124
410.864227	1366.771606	12373.488281	4411.234863	27.660049
411.226929	1367.717896	12423.409180	4423.623535	27.641020
411.589630	1369.524536	12473.394531	4437.001953	27.625301
411.952271	1370.793457	12497.547852	4445.583008	27.634201
412.314911	1371.116089	12522.303711	4454.035645	27.646557
412.677490	1370.599976	12536.693359	4459.412598	27.662426
413.040009	1373.675659	12560.458984	4463.198242	27.617613
413.402496	1372.557129	12553.318359	4465.972656	27.667305
413.764984	1368.427612	12534.865234	4461.864258	27.702986
414.127380	1367.889893	12502.602539	4459.649414	27.766855
414.489777	1366.900635	12490.407227	4461.562988	27.820923
414.852112	1367.459839	12512.194336	4469.241699	27.831814
415.214386	1366.276855	12548.994141	4482.620117	27.867496
415.576660	1366.018799	12629.650391	4509.290039	27.906374
415.938904	1364.233643	12746.977539	4542.391113	27.920837
416.301086	1366.900635	12896.694336	4589.923828	27.953867
416.663208	1370.793579	13069.619141	4640.166504	27.946165
417.025299	1371.159180	13253.083984	4701.550293	28.029055
417.387390	1373.374512	13469.753906	4765.063477	28.038877
417.749420	1380.472168	13732.582031	4843.826172	28.038563
418.111389	1384.580200	14027.824219	4929.126465	28.035103
418.473328	1387.720337	14356.853516	5025.891113	28.052538
418.835266	1391.333740	14718.684570	5134.786621	28.088501
419.197144	1397.441895	15121.508789	5250.285156	28.073627
419.558960	1401.292114	15548.528320	5374.751953	28.086475
419.920746	1408.045532	16017.491211	5512.511230	28.094604
420.282471	1412.325562	16561.236328	5662.142578	28.053614
420.644226	1418.304810	17156.554688	5831.689941	28.042414
421.005920	1422.219238	17755.876953	6005.066895	28.057693
421.367523	1427.273682	18320.054688	6172.291016	28.089025
421.729126	1429.531860	18822.029297	6319.987305	28.118189
422.090668	1432.177490	19260.212891	6449.896484	28.145102
422.452179	1434.156128	19616.773438	6551.715332	28.145338
422.813660	1435.876831	19942.878906	6649.340332	28.170221
423.175110	1438.242676	20241.583984	6742.232910	28.207701
423.536469	1438.930908	20520.156250	6826.458984	28.234709
423.897858	1439.425659	20782.404297	6904.791016	28.255033
424.259155	1439.124512	20923.882813	6957.808105	28.323080
424.620453	1437.791016	20975.201172	6987.295410	28.404503
424.981689	1438.092163	20959.500000	6993.962891	28.460400
425.342865	1438.715942	20913.107422	6986.586426	28.488031
425.704041	1441.017334	20834.367188	6972.992676	28.525116
426.065186	1441.318359	20749.023438	6954.797363	28.555849
426.426239	1441.447388	20644.773438	6940.214355	28.634451
426.787262	1439.941895	20466.019531	6893.456055	28.663364
427.148254	1437.102783	20225.689453	6829.641113	28.701139
427.509216	1434.994995	19907.519531	6742.598633	28.732420
427.870178	1432.973145	19504.158203	6630.370117	28.760687
428.231049	1430.155762	19086.945313	6514.355957	28.794592
428.591858	1426.585327	18670.699219	6397.523926	28.826872
428.952698	1421.509399	18269.832031	6283.015137	28.854540
429.313446	1416.842163	17885.699219	6178.895020	28.915503
429.674164	1412.239380	17541.742188	6081.032715	28.945675
430.034851	1408.862793	17206.625000	5989.795410	28.997353
430.395477	1408.174561	16918.267578	5905.269043	28.994635
430.756104	1406.539917	16688.412109	5838.013672	28.998238
431.116699	1404.991333	16488.386719	5788.222168	29.059975
431.477203	1406.174316	16316.538086	5745.378418	29.101934
431.837646	1405.937744	16210.290039	5724.924316	29.173759
432.198090	1405.442993	16155.550781	5714.687012	29.215002
432.558502	1405.980713	16141.225586	5716.514648	29.253223
432.918884	1408.196045	16152.410156	5725.074707	29.278461
433.279205	1407.335693	16212.224609	5742.775879	29.283844
433.639465	1406.496948	16264.639648	5765.660645	29.338551
433.999756	1405.593628	16348.177734	5792.932617	29.361313
434.359924	1404.410645	16430.123047	5825.237793	29.421747
434.720093	1404.518188	16499.076172	5852.230469	29.465670
435.080200	1403.464355	16569.537109	5875.050293	29.484140
435.440277	1401.679077	16644.814453	5907.248047	29.558018
435.800354	1398.495972	16696.929688	5925.142578	29.588955
436.160370	1396.302124	16723.988281	5940.155273	29.644741
436.520325	1393.333984	16741.214844	5952.264160	29.703972
436.880249	1391.785278	16744.398438	5959.189453	29.750011
437.240112	1393.635010	16742.140625	5964.867676	29.782915
437.599976	1393.355347	16763.734375	5976.998535	29.821276
437.959808	1397.248413	16810.578125	5995.860840	29.835293
438.319519	1396.538574	16871.531250	6023.133301	29.897234
438.679260	1397.011841	16968.898438	6061.353516	29.953608
439.038940	1398.001221	17101.580078	6109.703125	30.004002
439.398590	1401.313354	17284.636719	6171.990234	30.035759
439.758179	1403.593384	17510.082031	6257.205078	30.134514
440.117767	1407.679810	17808.658203	6362.917480	30.213062
440.477295	1412.691284	18135.470703	6470.694824	30.246189
440.836792	1416.992798	18487.625000	6591.117676	30.310095
441.196198	1416.627075	18806.761719	6699.625488	30.379284
441.555603	1421.165405	19081.398438	6798.347168	30.447966
441.914978	1420.154419	19270.431641	6878.357422	30.577694
442.274323	1422.004272	19408.857422	6926.944824	30.605356
442.633575	1425.854004	19502.654297	6977.122070	30.709351
442.992859	1430.349365	19538.033203	6997.039063	30.742140
443.352051	1429.618042	19510.417969	6998.501465	30.799982
443.711182	1431.231201	19432.322266	6984.500000	30.849621
444.070313	1430.263306	19310.414063	6951.227051	30.877615
444.429382	1427.660767	19152.394531	6917.093750	30.970467
444.788452	1426.649902	19016.162109	6888.251465	31.050331
445.147430	1428.886719	18932.904297	6878.980957	31.136248
445.506409	1427.617676	18915.289063	6888.337402	31.226110
445.865295	1427.380981	18997.214844	6927.654785	31.305212
446.224182	1430.048096	19166.203125	7005.168945	31.433653
446.583038	1428.607056	19404.511719	7086.770508	31.476377
446.941833	1427.725220	19672.609375	7194.418457	31.607180
447.300598	1428.564087	19946.794922	7297.936035	31.695103
447.659302	1429.467529	20195.962891	7384.634766	31.732973
448.018005	1432.112915	20390.330078	7463.075195	31.811865
448.376648	1434.435913	20546.457031	7531.750488	31.903032
448.735229	1433.812256	20616.380859	7569.646973	31.986515
449.093781	1430.155762	20626.341797	7590.381348	32.090885
449.452301	1426.327271	20563.126953	7586.316895	32.189240
449.810791	1426.456299	20426.488281	7558.958008	32.276272
450.169220	1422.499023	20185.425781	7496.713867	32.373493
450.527618	1420.004028	19889.474609	7420.682617	32.489716
450.885956	1415.831421	19574.554688	7338.693848	32.617176
451.244263	1413.293457	19276.238281	7265.201172	32.760036
451.602539	1410.927612	19023.753906	7205.086426	32.897381
451.960785	1408.432617	18834.052734	7162.134766	33.018635
452.318970	1408.174561	18676.830078	7134.281738	33.158962
452.677124	1405.507568	18535.242188	7109.182617	33.296925
453.035248	1404.324585	18393.332031	7078.424805	33.398655
453.393311	1406.131226	18235.076172	7042.291992	33.490871
453.751312	1404.216919	18067.550781	6996.995605	33.563385
454.109314	1406.432251	17921.660156	6959.744141	33.625401
454.467285	1404.862183	17778.740234	6933.698242	33.766197
454.825195	1404.432129	17644.810547	6903.931152	33.863121
455.183044	1402.474854	17489.566406	6865.517090	33.959164
455.540894	1400.797363	17304.662109	6823.555176	34.097107
455.898651	1399.248535	17107.042969	6781.420410	34.264339
456.256378	1395.871948	16915.341797	6729.178223	34.365261
456.614105	1394.301758	16754.355469	6692.248047	34.491718
456.971771	1392.602661	16626.273438	6673.429199	34.665489
457.329407	1389.247437	16578.355469	6679.021484	34.826099
457.686981	1388.881836	16595.927734	6709.434082	34.987415
458.044525	1384.881348	16716.048828	6773.656250	35.149147
458.402008	1386.731079	16913.148438	6859.279785	35.246696
458.759460	1390.258301	17222.691406	6991.210938	35.376450
459.116913	1395.850464	17682.341797	7183.384766	35.535797
459.474274	1400.883301	18285.017578	7425.995605	35.685051
459.831635	1406.840942	18900.771484	7676.801270	35.840778
460.188904	1411.508301	19491.898438	7917.776367	35.985218
460.546173	1418.562866	19993.939453	8124.705078	36.102322
460.903381	1425.251831	20382.978516	8293.801758	36.230873
461.260559	1430.177246	20662.236328	8427.925781	36.385853
461.617706	1433.424927	20856.863281	8528.282227	36.527302
461.974762	1433.037842	20902.890625	8582.718750	36.721802
462.331848	1433.016357	20853.939453	8597.946289	36.892838
462.688843	1426.671509	20652.968750	8552.134766	37.061028
463.045837	1421.208374	20278.253906	8446.100586	37.253410
463.402740	1416.068115	19744.960938	8284.101563	37.471077
463.759613	1410.131836	19186.871094	8095.950195	37.609928
464.116486	1404.905396	18641.621094	7919.863770	37.796986
464.473267	1399.055176	18194.984375	7779.738770	37.989464
464.830048	1397.205444	17837.132813	7676.649902	38.196301
465.186737	1396.474243	17553.250000	7592.726074	38.350796
465.543457	1391.742432	17325.523438	7541.751465	38.597298
465.900085	1392.796265	17206.626953	7524.437988	38.773914
466.256683	1391.161621	17162.019531	7544.483887	39.017044
466.613251	1393.592041	17192.710938	7597.478516	39.267296
466.969757	1393.721069	17282.013672	7661.873535	39.451389
467.326233	1393.893066	17380.392578	7730.270020	39.635799
467.682678	1394.430908	17445.085938	7800.407715	39.910995
468.039093	1393.979248	17487.242188	7854.241699	40.142654
468.395416	1392.366089	17481.046875	7896.806152	40.428673
468.751740	1390.365723	17475.798828	7928.250488	40.644753
469.108032	1387.333130	17453.904297	7961.545410	40.918579
469.464233	1386.924561	17425.257813	7987.010742	41.151943
469.820435	1387.462158	17371.595703	8003.399902	41.390656
470.176575	1388.903198	17264.826172	7997.765137	41.628204
470.532715	1390.709839	17116.185547	7974.041992	41.864120
470.888763	1389.871094	16959.392578	7953.738770	42.158443
471.244751	1389.957153	16821.849609	7939.995117	42.444813
471.600769	1388.838745	16735.945313	7946.705078	42.730309
471.956696	1391.419800	16686.154297	7972.708008	43.029762
472.312592	1395.119141	16715.039063	8036.198730	43.349312
472.668457	1394.172852	16788.876953	8115.500488	43.660000
473.024292	1395.613892	16909.494141	8217.555664	43.973152
473.380035	1399.872437	16996.687500	8309.352539	44.300583
473.735779	1402.711548	17086.396484	8401.449219	44.624321
474.091492	1400.130615	17172.923828	8497.224609	44.995796
474.447113	1398.689453	17280.419922	8601.625000	45.353596
474.802765	1400.238159	17379.853516	8699.313477	45.677414
475.158295	1401.227417	17497.501953	8808.467773	46.018353
475.513824	1401.205811	17608.527344	8917.469727	46.375732
475.869324	1400.495972	17745.513672	9042.217773	46.752605
476.224762	1399.420532	17873.398438	9154.961914	47.077526
476.580170	1401.743408	17999.607422	9285.666016	47.499626
476.935516	1402.668335	18130.783203	9412.306641	47.881294
477.290863	1401.721924	18340.294922	9575.788086	48.257114
477.646118	1399.807739	18551.289063	9744.153320	48.650879
478.001373	1403.163208	18806.695313	9926.197266	48.973015
478.356537	1404.561279	19087.570313	10132.222656	49.356197
478.711700	1408.927368	19371.455078	10343.130859	49.738007
479.066833	1412.863281	19646.175781	10550.468750	50.114895
479.421875	1416.003418	19939.740234	10773.077148	50.513969
479.776917	1418.713501	20251.736328	11009.536133	50.925556
480.131897	1422.756958	20583.023438	11260.943359	51.346817
480.486847	1425.187378	20960.789063	11538.741211	51.769859
480.841766	1427.617798	21395.488281	11856.178711	52.226704
481.196594	1431.403198	21904.089844	12214.587891	52.671074
481.551453	1438.608521	22567.785156	12654.815430	53.083977
481.906219	1446.028809	23387.111328	13209.097656	53.612072
482.260986	1455.320190	24480.345703	13909.829102	54.091183
482.615662	1465.364380	26038.882813	14895.092773	54.651226
482.970306	1480.312500	28242.232422	16287.157227	55.328037
483.324951	1502.057129	31073.486328	18159.476563	56.329437
483.679504	1528.103394	34178.042969	20346.498047	57.636845
484.034027	1552.192261	37240.316406	22536.726563	58.799770
484.388519	1577.485840	40007.261719	24451.029297	59.520363
484.742981	1599.682007	42335.035156	26022.470703	59.954777
485.097351	1615.727051	44198.640625	27271.810547	60.249714
485.451721	1625.018677	45581.304688	28253.869141	60.580299
485.806030	1633.750732	46583.941406	28993.056641	60.865829
486.160309	1640.482788	47246.304688	29560.261719	61.219772
486.514557	1645.494263	47545.160156	29928.613281	61.619446
486.868744	1646.569580	47432.246094	30030.988281	61.994102
487.222931	1643.171387	46820.234375	29771.068359	62.261456
487.577026	1636.890991	45926.082031	29212.437500	62.262474
487.931122	1628.933105	44990.953125	28617.375000	62.239815
488.285126	1619.964111	44104.308594	28117.830078	62.370895
488.639099	1612.952637	43301.371094	27730.576172	62.649590
488.993042	1607.553955	42603.714844	27455.574219	63.049854
489.346954	1604.542969	42024.195313	27232.085938	63.403671
489.700836	1601.617676	41487.574219	27048.167969	63.798271
490.054626	1597.423828	40928.410156	26831.408203	64.158028
490.408417	1590.670044	40378.378906	26605.425781	64.491455
490.762146	1584.217896	39816.289063	26408.455078	64.930397
491.115814	1583.056274	39386.949219	26300.675781	65.383789
491.469513	1578.711670	39061.570313	26248.111328	65.815147
491.823090	1576.281250	38661.800781	26141.154297	66.238449
492.176666	1572.173340	38210.628906	26007.201172	66.692291
492.530182	1567.678101	37734.078125	25863.937500	67.179100
492.883698	1562.967896	37229.519531	25664.687500	67.575134
493.237091	1558.687622	36680.738281	25441.669922	67.999962
493.590515	1550.321045	36093.078125	25163.529297	68.359360
493.943878	1543.266479	35411.636719	24814.343750	68.710358
494.297150	1537.846558	34507.351563	24312.130859	69.076820
494.650452	1529.049683	33330.281250	23609.957031	69.434128
495.003662	1512.875488	31807.943359	22637.988281	69.731194
495.356873	1500.314941	30131.712891	21567.166016	70.086868
495.710022	1487.066040	28584.187500	20582.917969	70.471886
496.063110	1476.828247	27306.437500	19792.646484	70.910164
496.416168	1468.074341	26367.935547	19232.126953	71.341972
496.769165	1463.084473	25714.408203	18873.630859	71.792152
497.122162	1457.449463	25311.005859	18666.076172	72.142815
497.475098	1456.632202	25029.080078	18550.750000	72.517365
497.828003	1456.223511	24893.019531	18545.201172	72.915161
498.180847	1454.029785	24823.205078	18582.412109	73.294769
498.533661	1454.416870	24769.218750	18631.728516	73.675568
498.886444	1453.621094	24713.750000	18685.712891	74.084251
499.239136	1451.964966	24632.236328	18707.523438	74.440712
499.591827	1449.900269	24482.648438	18659.298828	74.717087
499.944427	1449.039795	24238.423828	18547.478516	75.028084
500.297089	1446.007202	23928.687500	18375.501953	75.300163
500.649628	1444.630615	23578.921875	18181.822266	75.616570
501.002136	1440.371948	23203.154297	17979.474609	75.997192
501.354584	1437.532837	22852.552734	17785.470703	76.338654
501.707001	1434.156250	22491.947266	17581.144531	76.679405
502.059387	1432.005371	22181.478516	17418.072266	77.043243
502.411682	1429.747070	21899.015625	17275.517578	77.412483
502.764038	1429.531982	21673.394531	17155.437500	77.682335
503.116302	1429.575073	21490.425781	17076.718750	77.998398
503.468475	1428.370605	21362.968750	17050.712891	78.367981
503.820709	1427.445679	21297.326172	17067.339844	78.711563
504.172852	1427.768433	21260.976563	17100.935547	79.024864
504.524902	1425.101440	21239.255859	17145.564453	79.339561
504.876953	1428.177124	21248.654297	17195.529297	79.550827
505.228912	1427.918945	21261.386719	17273.474609	79.893013
505.580872	1427.553345	21280.679688	17338.083984	80.141182
505.932770	1426.391968	21267.861328	17372.023438	80.365181
506.284698	1425.209106	21266.160156	17393.662109	80.482300
506.636505	1425.660645	21272.806641	17441.648438	80.696678
506.988342	1423.789551	21269.794922	17473.519531	80.871338
507.340088	1424.671387	21276.398438	17520.515625	81.080322
507.691772	1424.456177	21279.777344	17554.154297	81.236153
508.043396	1423.681763	21298.380859	17618.654297	81.485374
508.395050	1425.337769	21345.074219	17697.482422	81.688553
508.746582	1426.262695	21429.212891	17807.431641	81.893768
509.098114	1426.929565	21563.166016	17934.308594	81.978470
509.449646	1429.446045	21709.593750	18081.748047	82.111343
509.801086	1431.080688	21892.970703	18256.349609	82.227348
510.152557	1433.403442	22072.626953	18445.080078	82.424011
510.503906	1433.640137	22255.166016	18627.449219	82.577087
510.855194	1437.210449	22443.490234	18810.611328	82.705750
511.206482	1438.801880	22627.857422	18987.148438	82.817970
511.557709	1440.243042	22821.171875	19179.388672	82.967140
511.908844	1445.340332	23011.128906	19356.119141	83.051819
512.260010	1446.136230	23173.730469	19520.677734	83.187035
512.611206	1446.588013	23288.087891	19645.595703	83.323067
512.962219	1449.663574	23368.722656	19734.187500	83.418381
513.313232	1450.394897	23425.783203	19802.517578	83.512169
513.664246	1450.932617	23455.679688	19846.136719	83.596527
514.015137	1450.760620	23457.228516	19856.072266	83.635918
514.366028	1453.728638	23439.097656	19854.156250	83.693970
514.716919	1452.115356	23387.007813	19826.994141	83.770088
515.067688	1450.416138	23307.533203	19778.773438	83.855331
515.418396	1449.555786	23222.382813	19725.259766	83.938133
515.769104	1448.136353	23144.609375	19675.382813	84.010185
516.119812	1450.093506	23090.453125	19645.271484	84.079834
516.470459	1450.050537	23097.982422	19671.039063	84.169647
516.821106	1450.824829	23162.376953	19753.480469	84.299156
517.171631	1453.126221	23358.894531	19936.535156	84.376900
517.522095	1457.212769	23642.285156	20194.998047	84.461227
517.872559	1461.062622	24070.144531	20576.787109	84.548874
518.222961	1464.977173	24575.886719	21014.970703	84.592056
518.573364	1469.493896	25124.449219	21497.375000	84.666748
518.923645	1476.312012	25645.048828	21941.923828	84.678040
519.273987	1481.818115	26105.107422	22332.681641	84.679443
519.624207	1483.925903	26452.355469	22622.308594	84.660439
519.974487	1483.646362	26733.636719	22860.595703	84.661217
520.324646	1484.850708	26895.742188	22999.386719	84.666595
520.674744	1483.000977	26977.429688	23064.556641	84.652039
521.024780	1481.710449	26911.783203	23010.656250	84.659393
521.374878	1480.419922	26728.537109	22864.960938	84.697571
521.724792	1477.086060	26432.779297	22616.048828	84.705971
522.074707	1472.505005	26056.068359	22304.419922	84.739197
522.424744	1468.870117	25661.351563	21965.902344	84.724800
522.774536	1464.095459	25332.281250	21688.449219	84.733521
523.124329	1462.159668	25042.888672	21448.892578	84.758759
523.474182	1458.589478	24903.343750	21327.716797	84.748711
523.823914	1461.815674	24869.898438	21293.242188	84.720421
524.173523	1463.321167	24982.623047	21367.376953	84.628601
524.523132	1467.084961	25229.251953	21575.705078	84.624519
524.872803	1469.020630	25632.398438	21916.650391	84.622398
525.222290	1474.118042	26245.767578	22425.164063	84.576714
525.571777	1480.118896	26965.470703	23035.648438	84.580078
525.921326	1488.958740	27765.914063	23713.882813	84.579529
526.270752	1495.389526	28603.373047	24440.404297	84.643013
526.620178	1505.949951	29496.150391	25195.851563	84.636414
526.969482	1513.800415	30569.894531	26117.943359	84.678078
527.318787	1527.286011	31845.470703	27222.082031	84.750443
527.668030	1539.803589	33489.312500	28662.130859	84.891220
528.017212	1559.289917	35522.765625	30498.445313	85.206696
528.366394	1579.442871	37770.765625	32554.505859	85.586983
528.715515	1603.768677	39934.906250	34545.679688	85.940346
529.064636	1620.781616	41741.433594	36200.292969	86.188805
529.413635	1635.256348	43115.664063	37431.910156	86.297737
529.762695	1642.827271	44061.628906	38269.343750	86.345001
530.111633	1649.752686	44697.285156	38798.011719	86.295906
530.460510	1649.731201	44978.562500	39055.550781	86.330093
530.809387	1647.408325	44862.527344	38941.085938	86.297752
531.158142	1642.504639	44333.128906	38476.382813	86.280952
531.506958	1635.901611	43292.691406	37552.804688	86.221008
531.855652	1623.814087	41803.566406	36204.503906	86.064964
532.204407	1609.554199	40108.777344	34630.785156	85.771164
532.552979	1591.637939	38622.894531	33224.246094	85.421371
532.901611	1580.238647	37507.550781	32179.857422	85.170914
533.250183	1573.549683	36804.671875	31520.031250	85.000084
533.598755	1566.581299	36351.496094	31115.832031	84.948463
533.947205	1563.010864	35978.953125	30807.687500	84.974213
534.295593	1561.505371	35663.878906	30527.070313	84.937088
534.643982	1561.634399	35411.527344	30328.511719	84.983650
534.992249	1567.914795	35183.628906	30146.681641	85.016090
535.340576	1561.526855	34984.875000	29984.576172	85.039505
535.688843	1556.752075	34779.281250	29808.857422	85.039001
536.037048	1552.041748	34511.781250	29567.576172	84.999268
536.385315	1550.880371	34046.386719	29164.408203	84.976448
536.733398	1545.288208	33382.691406	28585.585938	84.932487
537.081421	1536.878540	32527.445313	27871.798828	84.977211
537.429443	1531.695190	31672.181641	27132.093750	84.936913
537.777466	1528.555054	30902.644531	26465.429688	84.894119
538.125427	1524.640625	30244.908203	25913.855469	84.919876
538.473267	1519.865723	29722.843750	25459.732422	84.884178
538.821167	1509.907471	29287.111328	25103.431641	84.938438
539.169006	1508.853638	28941.242188	24813.675781	84.953674
539.516846	1508.401978	28654.732422	24578.486328	84.984169
539.864502	1509.240723	28495.763672	24430.357422	84.935417
540.212219	1507.928833	28504.111328	24447.955078	84.975075
540.559875	1511.520630	28838.193359	24749.880859	85.039116
540.907410	1519.500122	29597.880859	25395.361328	85.032898
541.254944	1530.125000	30617.769531	26282.117188	85.094521
541.602478	1536.168823	31697.882813	27235.869141	85.206367
541.949951	1542.857910	32720.099609	28110.923828	85.216217
542.297363	1549.718872	33602.207031	28879.039063	85.264267
542.644714	1555.117310	34395.015625	29546.888672	85.237083
542.992126	1562.107544	35014.703125	30076.501953	85.238220
543.339355	1564.710083	35429.875000	30435.599609	85.252472
543.686646	1564.580933	35497.582031	30515.523438	85.317963
544.033813	1562.494873	35207.761719	30249.425781	85.262909
544.380920	1554.149536	34458.527344	29602.466797	85.241898
544.728027	1542.900757	33316.277344	28615.869141	85.206459
545.075134	1530.189575	31969.875000	27461.298828	85.188492
545.422180	1519.500000	30666.382813	26312.423828	85.062012
545.769165	1509.111694	29513.033203	25321.074219	85.030815
546.116150	1500.379395	28531.037109	24466.000000	84.961380
546.463013	1491.259888	27665.556641	23713.089844	84.899437
546.809875	1481.581543	26966.525391	23107.617188	84.858086
547.156677	1477.903564	26331.867188	22557.527344	84.813934
547.503418	1472.526611	25801.994141	22101.169922	84.788719
547.850098	1467.601318	25317.220703	21703.892578	84.849533
548.196777	1466.676270	24898.181641	21341.847656	84.822426
548.543396	1465.321411	24474.513672	20990.945313	84.860100
548.890015	1459.385132	24032.888672	20607.347656	84.824951
549.236633	1453.341309	23521.126953	20195.664063	84.930687
549.583069	1448.588013	22973.126953	19726.230469	84.915375
549.929504	1444.006836	22375.375000	19221.650391	84.933029
550.275879	1438.049072	21767.470703	18712.513672	84.972733
550.622253	1435.747925	21120.251953	18167.261719	84.998398
550.968567	1428.047974	20528.802734	17666.660156	85.015556
551.314819	1424.520630	20002.304688	17224.369141	85.047005
551.661072	1421.982788	19598.126953	16871.273438	84.997627
552.007263	1416.218628	19304.757813	16623.048828	85.008789
552.353394	1411.852417	19120.906250	16451.283203	84.925087
552.699524	1410.153442	19001.708984	16340.993164	84.875046
553.045593	1407.249756	18950.607422	16287.372070	84.819122
553.391602	1407.701294	18928.796875	16270.488281	84.827957
553.737549	1407.895020	18905.654297	16244.743164	84.792839
554.083435	1408.690796	18871.564453	16215.321289	84.789200
554.429321	1405.744263	18837.603516	16163.678711	84.660706
554.775146	1404.711792	18766.435547	16088.875000	84.577789
555.120972	1401.593018	18699.888672	16021.943359	84.519028
555.466675	1400.001465	18572.431641	15918.186523	84.543571
555.812439	1400.861816	18412.195313	15781.566406	84.536026
556.158081	1400.431641	18199.246094	15609.782227	84.585434
556.503662	1400.495972	17978.443359	15428.962891	84.621254
556.849182	1400.818848	17754.201172	15234.897461	84.594597
557.194702	1397.764648	17537.119141	15052.596680	84.605812
557.540161	1393.140381	17350.515625	14896.211914	84.619629
557.885620	1390.774414	17176.365234	14751.418945	84.638229
558.231018	1387.849243	17019.054688	14633.641602	84.739418
558.576355	1386.472778	16895.041016	14526.360352	84.726631
558.921692	1386.365356	16771.951172	14423.508789	84.736084
559.266968	1382.923950	16670.603516	14341.840820	84.767059
559.612183	1381.353882	16585.216797	14262.199219	84.720871
559.957336	1378.815918	16526.220703	14205.200195	84.677116
560.302429	1376.493164	16485.611328	14173.110352	84.694664
560.647522	1377.073975	16465.630859	14150.849609	84.658699
560.992554	1376.149170	16452.361328	14129.170898	84.590355
561.337524	1375.396362	16454.466797	14121.234375	84.526680
561.682434	1376.772827	16478.041016	14128.353516	84.440460
562.027344	1379.590332	16486.343750	14125.686523	84.373489
562.372253	1380.256958	16492.281250	14121.040039	84.308914
562.717102	1381.052856	16496.431641	14119.771484	84.276543
563.061829	1383.289551	16506.345703	14115.534180	84.190941
563.406494	1382.923950	16506.863281	14100.133789	84.086624
563.751160	1383.010132	16487.873047	14094.005859	84.151680
564.095825	1383.805908	16480.019531	14076.625000	84.079491
564.440369	1381.052856	16470.945313	14065.397461	84.058548
564.784973	1381.547485	16486.128906	14078.346680	84.059258
565.129456	1383.504761	16545.621094	14129.641602	84.065681
565.473877	1381.934692	16631.501953	14200.124023	84.056084
565.818298	1379.418335	16780.574219	14319.774414	84.021980
566.162659	1381.225098	16958.230469	14473.772461	84.050468
566.507019	1383.117676	17142.789063	14626.694336	84.034592
566.851196	1382.623047	17304.982422	14767.487305	84.063324
567.195435	1384.924316	17465.066406	14899.953125	84.047943
567.539612	1386.128784	17583.642578	14993.321289	84.007912
567.883789	1387.870972	17669.867188	15055.284180	83.941879
568.227844	1390.107666	17720.433594	15093.203125	83.911957
568.571960	1392.796143	17746.607422	15108.086914	83.866020
568.915955	1391.957397	17702.988281	15078.706055	83.910995
569.259888	1392.301514	17641.583984	15026.549805	83.906769
569.603821	1394.624390	17538.859375	14936.538086	83.880798
569.947632	1393.140259	17414.093750	14835.235352	83.903214
570.291504	1390.537842	17301.820313	14730.040039	83.836754
570.635193	1388.817261	17230.070313	14666.721680	83.818527
570.979004	1387.720337	17189.140625	14639.556641	83.864845
571.322632	1388.387207	17251.921875	14677.000977	83.768295
571.666321	1386.881348	17348.537109	14762.022461	83.795441
572.009949	1388.752686	17484.488281	14873.347656	83.777435
572.353455	1388.688110	17614.806641	14986.157227	83.799889
572.696960	1392.903809	17731.423828	15081.825195	83.783119
573.040405	1395.269653	17836.578125	15167.491211	83.765968
573.383850	1396.302246	17900.994141	15234.403320	83.843445
573.727173	1397.678589	17957.580078	15281.140625	83.837822
574.070557	1398.667969	17983.669922	15324.049805	83.963707
574.413879	1400.474731	18000.898438	15344.009766	83.995056
574.757019	1398.560425	18007.070313	15360.096680	84.062546
575.100281	1398.409912	17948.935547	15325.875977	84.151199
575.443420	1397.850586	17855.351563	15258.255859	84.219383
575.786499	1394.968628	17718.580078	15155.360352	84.297470
576.129517	1395.011597	17557.830078	15037.709961	84.407913
576.472534	1395.269653	17409.726563	14923.440430	84.474739
576.815491	1393.376953	17219.445313	14789.143555	84.643677
577.158447	1392.839355	17037.873047	14655.859375	84.774635
577.501343	1389.634644	16846.281250	14511.303711	84.893379
577.844116	1385.655518	16634.621094	14348.746094	85.009636
578.187012	1383.182129	16399.818359	14159.518555	85.081207
578.529724	1380.321533	16122.384766	13938.931641	85.188957
578.872375	1377.310425	15831.832031	13714.366211	85.350838
579.215027	1374.062622	15551.066406	13492.488281	85.479454
579.557617	1371.159058	15267.546875	13276.805664	85.674400
579.900146	1368.104980	15013.774414	13071.640625	85.767395
580.242676	1364.362549	14763.677734	12876.627930	85.916817
580.585144	1363.910889	14546.577148	12703.250000	86.017036
580.927612	1360.620117	14349.434570	12539.553711	86.065849
581.269958	1358.254272	14169.499023	12400.849609	86.194557
581.612305	1359.136108	14031.352539	12293.500977	86.286125
581.954590	1358.017700	13892.000977	12196.931641	86.476212
582.296814	1359.329712	13789.235352	12131.740234	86.665260
582.639038	1358.168335	13691.159180	12070.291016	86.857460
582.981140	1360.641724	13596.156250	12015.100586	87.078140
583.323242	1364.212036	13520.319336	11966.772461	87.220032
583.665283	1361.824707	13440.610352	11922.853516	87.434532
584.007324	1359.243652	13378.174805	11893.688477	87.648766
584.349304	1357.071411	13312.359375	11861.147461	87.861336
584.691284	1355.264771	13251.771484	11835.703125	88.096771
585.033142	1354.447388	13186.343750	11812.561523	88.389160
585.374939	1354.253906	13123.582031	11778.772461	88.573608
585.716736	1352.533203	13080.458984	11765.715820	88.789635
586.058411	1353.329102	13023.613281	11738.185547	88.985466
586.400085	1354.124878	12978.125000	11714.741211	89.131248
586.741760	1351.285889	12935.324219	11704.503906	89.374863
587.083374	1348.253174	12922.503906	11710.633789	89.529602
587.424988	1348.167114	12903.749023	11712.828125	89.693977
587.766541	1346.360352	12895.706055	11720.054688	89.820625
588.107971	1346.166748	12910.008789	11755.263672	90.014175
588.449341	1346.747559	12925.581055	11795.160156	90.237167
588.790710	1346.941162	12962.487305	11851.812500	90.438034
589.132080	1345.693604	12993.931641	11903.539063	90.638992
589.473267	1348.984375	13041.616211	11968.708984	90.824074
589.814514	1347.392700	13090.913086	12027.662109	90.946060
590.155762	1346.424927	13151.329102	12097.928711	91.076584
590.496948	1348.704834	13191.547852	12146.579102	91.176369
590.838013	1348.102661	13204.711914	12181.422852	91.369461
591.179077	1349.005981	13229.359375	12225.902344	91.553642
591.520081	1350.704956	13229.360352	12242.119141	91.688950
591.861023	1352.339600	13208.475586	12235.990234	91.797623
592.201965	1351.930908	13188.343750	12227.731445	91.884262
592.542847	1353.264526	13146.706055	12199.340820	91.967018
592.883606	1353.716187	13099.450195	12173.852539	92.119713
593.224365	1352.468628	13047.250000	12146.471680	92.297607
593.565125	1352.511597	13016.602539	12144.363281	92.522011
593.905823	1353.823730	12999.008789	12148.321289	92.694946
594.246521	1353.350464	12995.803711	12168.024414	92.889992
594.587097	1354.942139	13030.777344	12218.589844	93.043861
594.927612	1354.017334	13055.768555	12265.240234	93.244362
595.268127	1354.985229	13121.110352	12340.862305	93.368690
595.608582	1350.597534	13227.984375	12450.380859	93.453079
595.948975	1350.877075	13347.805664	12596.227539	93.735245
596.289307	1352.597656	13530.000000	12784.746094	93.880028
596.629700	1353.845093	13753.403320	13014.235352	94.038757
596.969971	1355.157104	13974.957031	13232.005859	94.112816
597.310242	1355.028198	14161.775391	13416.028320	94.176918
597.650391	1355.286255	14280.758789	13544.281250	94.302124
597.990540	1353.350464	14364.662109	13632.550781	94.373268
598.330627	1354.425903	14370.918945	13652.552734	94.481110
598.670654	1356.727295	14358.681641	13635.516602	94.438026
599.010620	1355.845459	14279.640625	13574.003906	94.540016
599.350525	1358.834961	14147.237305	13461.344727	94.636604
599.690491	1358.985474	13981.238281	13298.035156	94.587311
600.030334	1356.426147	13756.113281	13092.846680	94.650940
600.370178	1354.576416	13481.950195	12830.900391	94.631569
600.710022	1352.210449	13190.322266	12564.374023	94.712440
601.049683	1351.221191	12926.418945	12327.656250	94.827202
601.389343	1349.005859	12712.930664	12130.062500	94.870888
601.728943	1349.220947	12547.619141	11972.170898	94.861336
602.068542	1346.145386	12447.219727	11875.964844	94.854057
602.408081	1343.714966	12407.515625	11852.436523	94.982925
602.747498	1347.392822	12457.952148	11897.882813	94.959129
603.087036	1349.758667	12558.715820	12000.433594	95.019318
603.426453	1349.027344	12710.046875	12153.183594	95.098473
603.765869	1350.661987	12902.652344	12337.636719	95.108932
604.105103	1350.833984	13132.744141	12574.224609	95.259514
604.444336	1352.103027	13408.628906	12846.496094	95.337524
604.783569	1354.791504	13683.350586	13113.237305	95.375671
605.122681	1358.039185	13923.790039	13354.106445	95.466377
605.461792	1360.362183	14122.050781	13566.562500	95.647217
605.800842	1361.910645	14273.315430	13719.849609	95.713364
606.139954	1362.641846	14346.141602	13789.622070	95.713638
606.478943	1359.931763	14330.636719	13800.675781	95.914169
606.817932	1356.813232	14249.227539	13735.421875	96.014664
607.156799	1358.340332	14120.008789	13613.170898	96.028435
607.495605	1357.071411	13942.028320	13448.031250	96.074699
607.834412	1356.512207	13730.906250	13243.383789	96.060226
608.173157	1356.963867	13487.928711	13010.793945	96.066803
608.511841	1357.523193	13275.150391	12807.371094	96.074898
608.850464	1356.813354	13123.109375	12663.697266	96.095528
609.189148	1357.222046	13038.905273	12573.600586	96.016800
609.527710	1357.178955	12987.802734	12529.531250	96.059784
609.866211	1356.619629	12966.853516	12527.165039	96.212914
610.204712	1356.576660	12970.832031	12536.285156	96.258507
610.543091	1358.921021	12985.652344	12554.006836	96.287476
610.881409	1359.200684	12981.887695	12558.975586	96.361320
611.219788	1358.555542	12962.636719	12552.329102	96.464111
611.558044	1359.222290	12924.590820	12528.994141	96.579475
611.896301	1357.071411	12848.300781	12464.899414	96.663528
612.234436	1355.092651	12720.778320	12349.228516	96.730949
612.572693	1350.468384	12538.434570	12179.056641	96.787819
612.910767	1346.295776	12311.265625	11962.041016	96.815086
613.248840	1345.951660	12067.795898	11730.506836	96.854187
613.586792	1344.962402	11823.615234	11496.499023	96.878273
613.924805	1343.112671	11590.983398	11263.588867	96.805244
614.262695	1339.284180	11367.793945	11050.981445	96.840881
614.600525	1335.563354	11181.536133	10867.668945	96.812225
614.938293	1333.627441	11017.816406	10714.854492	96.871574
615.276123	1329.906738	10869.152344	10569.180664	96.855385
615.613892	1329.584106	10751.783203	10463.511719	96.940506
615.951538	1328.035522	10640.694336	10356.422852	96.947472
616.289185	1328.014038	10566.943359	10278.369141	96.876541
616.626770	1327.411743	10496.353516	10214.039063	96.920967
616.964294	1326.013672	10445.938477	10167.991211	96.952309
617.301819	1323.604736	10407.267578	10134.631836	96.998611
617.639221	1323.153076	10378.189453	10103.230469	96.963470
617.976624	1321.325073	10362.853516	10081.464844	96.887817
618.313965	1324.164185	10346.486328	10063.785156	96.866646
618.651306	1327.497803	10337.819336	10048.966797	96.794205
618.988525	1329.605591	10326.570313	10038.040039	96.793030
619.325684	1329.433472	10320.224609	10016.983398	96.627205
619.662964	1331.111206	10312.611328	10010.638672	96.637840
620.000000	1331.605957	10289.296875	9994.679688	96.711014
620.337097	1329.842285	10270.563477	9973.773438	96.680481
620.674133	1327.670044	10244.667969	9942.952148	96.616394
621.011047	1330.035889	10211.373047	9910.281250	96.609840
621.347961	1329.648682	10182.379883	9880.535156	96.590378
621.684875	1331.390747	10146.871094	9848.704102	96.617691
622.021729	1329.863770	10114.371094	9827.325195	96.732353
622.358521	1329.132324	10068.881836	9787.406250	96.779350
622.695313	1327.325684	10045.352539	9755.080078	96.670425
623.031982	1326.551514	10015.541992	9728.410156	96.695450
623.368652	1324.529785	9991.561523	9707.052734	96.717354
623.705261	1323.712402	9977.149414	9693.480469	96.721878
624.041748	1326.443970	9965.019531	9686.749023	96.778748
624.378296	1330.057373	9964.589844	9689.673828	96.816086
624.714722	1329.777710	9987.903320	9690.727539	96.567665
625.051147	1331.756470	10010.014648	9714.149414	96.590729
625.387512	1333.520142	10059.138672	9759.553711	96.566605
625.723877	1334.358887	10114.349609	9819.043945	96.636620
626.060120	1332.380249	10206.467773	9898.215820	96.526382
626.396301	1335.004150	10316.202148	10007.756836	96.565659
626.732483	1338.079956	10427.527344	10129.792969	96.724396
627.068604	1340.488770	10542.659180	10236.559570	96.673615
627.404724	1345.156006	10649.726563	10343.991211	96.714134
627.740662	1346.575562	10744.706055	10437.056641	96.726486
628.076721	1345.392578	10811.510742	10498.204102	96.690231
628.412720	1344.360107	10847.579102	10545.972656	96.826271
628.748596	1344.058960	10864.636719	10561.523438	96.816231
629.084473	1344.790161	10857.860352	10557.437500	96.841995
629.420227	1344.058960	10822.523438	10523.089844	96.840904
629.755981	1344.381592	10759.699219	10464.264648	96.862190
630.091675	1345.285034	10655.600586	10371.651367	96.950165
630.427307	1343.714966	10541.219727	10253.507813	96.871849
630.762939	1340.768311	10419.979492	10135.793945	96.869934
631.098450	1338.208862	10297.727539	10008.574219	96.772667
631.434021	1338.208862	10185.499023	9896.128906	96.729279
631.769470	1335.197754	10085.313477	9794.933594	96.681427
632.104980	1333.240479	9990.163086	9704.707031	96.702568
632.440308	1331.627441	9907.851563	9628.203125	96.739258
632.775635	1330.315430	9827.433594	9552.644531	96.766090
633.110901	1330.401489	9767.102539	9487.713867	96.688416
633.446106	1330.788574	9724.925781	9445.536133	96.671616
633.781250	1328.100098	9693.135742	9411.897461	96.637939
634.116394	1329.304565	9672.036133	9385.355469	96.563705
634.451538	1330.186401	9660.164063	9368.277344	96.495949
634.786560	1329.261597	9636.849609	9347.264648	96.514214
635.121582	1326.723511	9609.641602	9320.659180	96.511101
635.456543	1329.820679	9574.928711	9305.819336	96.736130
635.791443	1334.122437	9539.719727	9271.233398	96.728004
636.126221	1333.455688	9498.402344	9235.358398	96.778374
636.461060	1330.294067	9459.751953	9196.558594	96.762474
636.795776	1328.336792	9411.875000	9144.508789	96.692459
637.130493	1327.261353	9340.318359	9074.199219	96.678932
637.465210	1329.089478	9269.083984	8997.953125	96.585251
637.799805	1327.562378	9190.750977	8920.760742	96.566406
638.134399	1325.196655	9101.235352	8838.384766	96.619736
638.468933	1324.400757	9013.999023	8765.902344	96.773605
638.803345	1324.099731	8930.870117	8684.688477	96.763649
639.137756	1322.357422	8856.818359	8609.044922	96.711464
639.472168	1320.937988	8790.487305	8541.917969	96.672234
639.806519	1319.582886	8721.060547	8478.362305	96.720947
640.140747	1319.797974	8648.619141	8410.697266	96.753616
640.474976	1320.142090	8578.417969	8347.400391	96.817184
640.809204	1321.066895	8510.150391	8287.586914	96.904144
641.143372	1321.023926	8444.959961	8231.686523	97.006241
641.477478	1320.658325	8379.188477	8174.218262	97.096138
641.811462	1321.798340	8318.385742	8122.296387	97.197357
642.145447	1322.206909	8273.305664	8076.871582	97.174057
642.479370	1321.647583	8229.859375	8029.747070	97.103271
642.813293	1321.346558	8179.572266	7977.482910	97.053329
643.147095	1318.873169	8133.115234	7933.068848	97.064293
643.480957	1319.862427	8095.455078	7888.956055	96.952309
643.814758	1322.593872	8059.644043	7856.026855	96.977654
644.148438	1322.809082	8031.532715	7824.453613	96.913284
644.482117	1322.593872	8010.153320	7799.632813	96.852058
644.815735	1320.400146	7981.741699	7765.133301	96.748276
645.149292	1319.002075	7963.890625	7742.012695	96.660927
645.482788	1318.636475	7946.726563	7718.483887	96.556442
645.816223	1318.098755	7929.542480	7694.222168	96.440712
646.149658	1321.884277	7921.261230	7687.770020	96.461922
646.483032	1322.830566	7925.670410	7689.984863	96.430542
646.816345	1325.002930	7925.347168	7688.049805	96.404770
647.149658	1325.712769	7925.153320	7696.265625	96.531708
647.482849	1323.067261	7931.089355	7692.587891	96.390732
647.816101	1323.690918	7933.498535	7695.534180	96.399826
648.149231	1325.583618	7934.251465	7701.191895	96.473427
648.482239	1325.562134	7940.402832	7709.600098	96.510834
648.815247	1325.282715	7940.918457	7713.364258	96.560356
649.148254	1326.250366	7943.090820	7719.279297	96.617546
649.481201	1326.723511	7939.155762	7714.590332	96.603889
649.814087	1323.475830	7926.875000	7711.429199	96.737343
650.146973	1323.949097	7914.399902	7700.352051	96.752151
650.479736	1322.873657	7914.377930	7698.889160	96.730812
650.812500	1323.820068	7909.216797	7693.404785	96.722878
651.145203	1324.185547	7898.226074	7690.995605	96.847748
651.477844	1325.045898	7892.375488	7686.565430	96.866150
651.810486	1322.529419	7888.052734	7677.230957	96.788956
652.143005	1322.421875	7879.083984	7671.187500	96.829231
652.475525	1322.830566	7875.061035	7665.078613	96.795250
652.807922	1321.389526	7863.532715	7650.840332	96.748886
653.140381	1321.131348	7854.090820	7642.860840	96.766701
653.472717	1322.206787	7835.443359	7626.429199	96.790939
653.805115	1322.744507	7811.312012	7600.296387	96.747887
654.137390	1323.303833	7778.468750	7576.337402	96.868690
654.469543	1322.292847	7743.497070	7535.257324	96.756996
654.801758	1323.992065	7706.976563	7498.521484	96.734207
655.133850	1322.938110	7666.024902	7464.087402	96.816414
655.465881	1323.798340	7628.988770	7423.715820	96.744385
655.797974	1326.874023	7598.726563	7392.787109	96.716446
656.129944	1328.723755	7561.474609	7360.029785	96.767960
656.461853	1331.111206	7537.429199	7338.048828	96.787460
656.793762	1330.465942	7519.620605	7318.218750	96.745888
657.125610	1329.476685	7518.437500	7313.980957	96.696434
657.457397	1330.100342	7528.761230	7326.865234	96.742905
657.789124	1327.884888	7549.730957	7344.544922	96.702171
658.120789	1325.863281	7595.220703	7386.937012	96.677750
658.452393	1325.712646	7671.316895	7459.096680	96.655624
658.783997	1325.906250	7765.521484	7546.912598	96.605247
659.115540	1325.024292	7877.062500	7664.540527	96.756401
659.447083	1322.099243	7988.430176	7776.532715	96.821381
659.778503	1323.475952	8102.724609	7884.524902	96.781357
660.109924	1322.895264	8201.403320	7979.826660	96.778717
660.441284	1327.067749	8284.660156	8052.351563	96.661079
660.772522	1329.347656	8343.678711	8098.937988	96.510849
661.103760	1328.401245	8376.391602	8128.641113	96.484810
661.434998	1329.067993	8385.361328	8137.159180	96.482544
661.766113	1332.659912	8352.733398	8110.037109	96.542824
662.097229	1332.573730	8281.864258	8045.900391	96.604492
662.428345	1334.746094	8188.197266	7953.437500	96.574577
662.759277	1336.638794	8055.599609	7828.518555	96.620293
663.090332	1339.757446	7920.400391	7694.501953	96.567230
663.421204	1336.617310	7777.931641	7557.129883	96.572098
663.752075	1336.230225	7635.720215	7428.942383	96.717537
664.082886	1333.584595	7499.488770	7307.314453	96.883278
664.413635	1332.401733	7379.345215	7198.440918	97.008331
664.744324	1331.347778	7271.783203	7091.717285	96.968811
665.075012	1333.627686	7177.986328	6997.941895	96.919357
665.405640	1333.477051	7108.106445	6928.190918	96.884377
665.736206	1333.971802	7047.948730	6867.151855	96.835884
666.066772	1332.638184	6992.845215	6818.844238	96.925888
666.397278	1331.175659	6956.948242	6774.752930	96.761414
666.727661	1328.895752	6917.653320	6743.114258	96.876961
667.058044	1331.648804	6889.562988	6715.004395	96.859276
667.388306	1331.068237	6871.109375	6687.990234	96.694626
667.718567	1330.874756	6853.817383	6674.396973	96.751373
668.048828	1331.842651	6843.343262	6662.739258	96.723145
668.378967	1334.186890	6841.342285	6667.363770	96.840866
668.709167	1333.907227	6841.601074	6669.987793	96.884117
669.039246	1334.165283	6841.170410	6669.493652	96.882576
669.369263	1335.434326	6843.127930	6667.879883	96.818123
669.699341	1336.638794	6839.643555	6662.567383	96.782188
670.029236	1335.993530	6832.223145	6655.448242	96.783707
670.359131	1335.735474	6828.630859	6647.232422	96.697578
670.688965	1335.993530	6818.565430	6640.026855	96.743523
671.018738	1338.402466	6799.423340	6626.390625	96.831497
671.348511	1339.563965	6785.142578	6611.658203	96.814217
671.678223	1340.617676	6766.085449	6594.021484	96.828590
672.007813	1339.284302	6734.426270	6563.931152	96.839844
672.337341	1339.714478	6704.465332	6533.195801	96.807503
672.666992	1340.596313	6671.987793	6500.784180	96.788765
672.996460	1339.822144	6636.758301	6466.649902	96.788551
673.325867	1340.768555	6604.001465	6435.808105	96.804375
673.655273	1343.693604	6570.578125	6404.062500	96.814247
673.984619	1346.166992	6531.841797	6367.670410	96.834137
674.314026	1346.769165	6501.708984	6334.397949	96.754356
674.643250	1347.457397	6475.360840	6307.813965	96.732643
674.972412	1348.102539	6445.852051	6278.498535	96.717110
675.301514	1346.123901	6418.300293	6248.000000	96.642464
675.630676	1348.425171	6399.007813	6222.642578	96.508018
675.959778	1348.726196	6375.133301	6198.746582	96.490799
676.288757	1346.769043	6355.583008	6178.916016	96.472878
676.617737	1347.994995	6330.139160	6158.828125	96.561501
676.946594	1345.564575	6317.104980	6138.911133	96.415718
677.275513	1346.769043	6303.340820	6129.749512	96.497757
677.604309	1348.296143	6301.619141	6123.361328	96.401245
677.933044	1348.339111	6297.081055	6124.028320	96.503098
678.261780	1347.371216	6302.092285	6127.534180	96.476936
678.590393	1346.725952	6318.115723	6142.503418	96.467545
678.919067	1347.736816	6339.990234	6170.140625	96.597740
679.247620	1350.597290	6369.906738	6203.908203	96.692802
679.576111	1354.576294	6414.687012	6247.096680	96.688011
679.904541	1357.888672	6464.951660	6295.081055	96.673813
680.232971	1360.211548	6527.389160	6345.926270	96.488159
680.561401	1367.094238	6579.482422	6400.126953	96.559052
680.889709	1368.986816	6631.660645	6452.993652	96.605019
681.217957	1370.320313	6676.612793	6499.579590	96.663712
681.546143	1373.030396	6715.370117	6536.121582	96.644753
681.874390	1376.299683	6754.256348	6567.501953	96.527412
682.202454	1380.837769	6781.851074	6588.794922	96.425560
682.530579	1384.322144	6789.357422	6597.376465	96.448112
682.858521	1385.376099	6781.614258	6586.987793	96.393295
683.186523	1385.913696	6746.879395	6559.500488	96.504753
683.514465	1386.193237	6701.539551	6515.086426	96.492172
683.842346	1388.881836	6645.490234	6461.488770	96.499619
684.170166	1386.279297	6579.826172	6400.578125	96.548637
684.497925	1386.472778	6514.226563	6332.010742	96.446480
684.825623	1385.655396	6446.218262	6257.291992	96.266693
685.153320	1384.773682	6370.703125	6188.530762	96.346260
685.481018	1383.354126	6294.414551	6117.833008	96.404411
685.808533	1384.106934	6218.426270	6048.921387	96.493721
686.136047	1385.784668	6154.891113	5989.172363	96.525162
686.463623	1386.774048	6099.916992	5935.509766	96.511726
686.791016	1387.526855	6063.267090	5896.408203	96.431389
687.118408	1389.634644	6037.909180	5874.232910	96.478775
687.445740	1388.042969	6019.132813	5864.855957	96.668671
687.772949	1389.613159	6015.045410	5857.241699	96.588348
688.100220	1391.161621	6012.099609	5861.693848	96.745125
688.427429	1396.474121	6003.087402	5863.307129	96.965660
688.754517	1399.270264	6008.249512	5862.640625	96.840744
689.081604	1402.259888	5999.280762	5859.650879	96.962601
689.408630	1401.657593	5991.171875	5850.488281	96.934677
689.735657	1402.023193	5971.492188	5831.109863	96.927834
690.062622	1401.377930	5948.737305	5811.601563	96.984276
690.389465	1403.141602	5917.722168	5780.759277	96.966209
690.716248	1404.238647	5876.018555	5735.915039	96.866943
691.043091	1406.045288	5826.141113	5682.918457	96.759735
691.369812	1407.744385	5769.511230	5627.020020	96.733177
691.696533	1407.658325	5708.041016	5561.937012	96.602531
692.023132	1403.399658	5655.582520	5508.574707	96.542770
692.349670	1401.700439	5592.693359	5453.019531	96.667282
692.676270	1403.227661	5541.073730	5400.755371	96.608902
693.002747	1403.378052	5492.959961	5352.642090	96.568893
693.329163	1403.313599	5450.717773	5303.969238	96.374252
693.655518	1405.593506	5407.400879	5263.663086	96.408180
693.981873	1404.389038	5364.772461	5227.164063	96.525375
694.308167	1406.260254	5326.423828	5197.870117	96.720703
694.634399	1406.195801	5301.151367	5172.963867	96.708885
694.960571	1406.604492	5276.309570	5152.896484	96.810791
695.286743	1409.400513	5256.242676	5135.388672	96.858360
695.612854	1414.239746	5242.563477	5120.376465	96.808342
695.938904	1418.713379	5237.853516	5112.633301	96.721245
696.264832	1420.197388	5241.918457	5112.783691	96.621033
696.590820	1425.208862	5250.500000	5122.892578	96.664108
696.916687	1428.047974	5274.652832	5148.788574	96.727913
697.242554	1430.822510	5313.324707	5181.158203	96.595840
697.568359	1435.919800	5373.332520	5232.820313	96.431358
697.894043	1442.802490	5455.772949	5308.765137	96.336685
698.219788	1451.663696	5556.581055	5400.754883	96.203911
698.545349	1459.578735	5674.015137	5514.962891	96.226013
698.870972	1470.827515	5799.234375	5634.138672	96.185760
699.196533	1477.903442	5917.076660	5753.358398	96.311966
699.521973	1484.678589	6021.197266	5856.468262	96.368820
699.847412	1493.948730	6108.326172	5938.047852	96.309830
700.172852	1502.121582	6172.678223	5995.280762	96.201790
700.498169	1510.208618	6207.930176	6027.048340	96.149582
700.823486	1514.832764	6215.135742	6033.350098	96.132477
701.148682	1517.456909	6188.142578	6008.034668	96.143867
701.473816	1518.682739	6122.328613	5940.241699	96.044724
701.799072	1518.897949	6019.906738	5846.272949	96.142334
702.124146	1515.607300	5893.568848	5719.848145	96.031929
702.449158	1510.832153	5747.744141	5580.046387	96.041985
702.774109	1510.466675	5599.274414	5430.135254	95.863365
703.099060	1508.014771	5460.439941	5291.451172	95.724426
703.424011	1501.906372	5323.562500	5163.822754	95.820145
703.748840	1494.937866	5198.386230	5048.453613	95.951538
704.073608	1492.292236	5088.071289	4944.074707	95.995399
704.398315	1489.216675	4990.511230	4856.709473	96.178505
704.723022	1488.506958	4912.694824	4781.474121	96.167831
705.047668	1487.194946	4849.225098	4716.046875	96.038757
705.372253	1486.958496	4791.949219	4661.480957	96.052383
705.696716	1489.560913	4742.028809	4613.818848	96.058075
706.021240	1486.377808	4705.701660	4575.319336	95.950012
706.345764	1486.076660	4678.321777	4547.229980	95.893433
706.670044	1489.023315	4652.834961	4525.765137	95.983650
706.994446	1493.626099	4636.037109	4507.375488	95.905640
707.318665	1498.056641	4628.853516	4494.922363	95.722137
707.642883	1500.013794	4621.927246	4486.534668	95.663155
707.967102	1503.326050	4619.539551	4478.963379	95.488876
708.291260	1507.907349	4620.271484	4471.112793	95.207542
708.615295	1511.757324	4613.496582	4473.371094	95.482361
708.939331	1514.875854	4623.369141	4479.522461	95.372459
709.263367	1517.671875	4634.337891	4490.233887	95.376343
709.587280	1525.285645	4649.156250	4501.912109	95.286484
709.911194	1529.910034	4660.512207	4520.925781	95.541229
710.234985	1534.168457	4682.300293	4534.906250	95.318047
710.558716	1538.620728	4706.905762	4555.252441	95.213394
710.882568	1546.449707	4732.435547	4581.342285	95.257568
711.206177	1551.869629	4761.234863	4610.356445	95.298805
711.529785	1558.451172	4791.948242	4637.327637	95.218163
711.853394	1566.322998	4811.542480	4665.008789	95.484627
712.176880	1571.054810	4837.051270	4686.495117	95.390190
712.500427	1575.356567	4848.170898	4699.700684	95.463531
712.823792	1581.636841	4854.945801	4703.873535	95.384720
713.147217	1587.981689	4857.269043	4709.529297	95.480980
713.470520	1594.068481	4847.482422	4698.172852	95.410683
713.793823	1596.627808	4831.975098	4684.343750	95.436928
714.117004	1599.639038	4813.134277	4665.761230	95.413933
714.440247	1599.165894	4789.754395	4638.682617	95.265083
714.763367	1603.875854	4761.858887	4610.593262	95.210052
715.086365	1608.371094	4733.424805	4581.062012	95.124474
715.409485	1608.629272	4712.583984	4555.424316	94.936790
715.732361	1610.801636	4689.419922	4530.625488	94.842026
716.055298	1614.780762	4668.600098	4512.193359	94.878326
716.378174	1617.232544	4652.146484	4497.869141	94.916580
716.700928	1617.490723	4631.476563	4476.597656	94.861328
717.023804	1617.533691	4612.958496	4455.305176	94.736862
717.346558	1623.104248	4589.815918	4430.033203	94.614151
717.669189	1625.040161	4560.134766	4399.835449	94.538528
717.991760	1629.470703	4523.679199	4365.250488	94.526009
718.314392	1629.169556	4482.189453	4325.267090	94.499779
718.636902	1627.621094	4440.808105	4288.617676	94.590103
718.959351	1629.341797	4385.704590	4241.020020	94.750885
719.281738	1630.244995	4331.891113	4192.690918	94.847580
719.604065	1629.642700	4277.132324	4141.093262	94.861580
719.926453	1629.685913	4219.189453	4084.850098	94.812157
720.248718	1630.782715	4167.097168	4034.305664	94.764389
720.570923	1631.535522	4116.423828	3988.192871	94.839569
720.893066	1628.094116	4070.225098	3951.242188	95.127907
721.215088	1627.599487	4024.885742	3911.861084	95.285316
721.537170	1624.631348	3983.074463	3878.265869	95.556023
721.859192	1624.695801	3953.220947	3847.035889	95.439812
722.181152	1625.448730	3915.560303	3815.655518	95.637558
722.503052	1625.964844	3889.772461	3790.491455	95.614426
722.824951	1626.739136	3870.092285	3771.112549	95.587875
723.146790	1625.857300	3852.434326	3748.486084	95.331474
723.468506	1624.373169	3838.518799	3733.215088	95.244049
723.790161	1624.953979	3823.914795	3716.847900	95.131020
724.111816	1626.889771	3815.247070	3704.846680	94.955101
724.433472	1631.427856	3805.503906	3690.177979	94.695396
724.755005	1636.890991	3800.771973	3682.671631	94.542206
725.076477	1641.708862	3796.147705	3679.982910	94.608116
725.397888	1646.956665	3793.975586	3678.219482	94.608513
725.719299	1652.613281	3796.771240	3680.327148	94.569237
726.040710	1656.097656	3798.341553	3680.348389	94.492073
726.361938	1660.291748	3797.567383	3682.219727	94.603050
726.683167	1668.808716	3805.762451	3690.091553	94.587120
727.004395	1676.659058	3811.676758	3702.265625	94.875404
727.325500	1686.273438	3822.968750	3717.750977	95.075676
727.646667	1695.306763	3836.905273	3737.409424	95.354126
727.967651	1702.640991	3852.821289	3754.594482	95.431709
728.288635	1711.201172	3870.888184	3777.005371	95.652946
728.609558	1721.976685	3887.062500	3789.093018	95.475021
728.930481	1729.267944	3898.289307	3803.675537	95.637955
729.251282	1736.430054	3910.721191	3811.741455	95.447739
729.572021	1742.646118	3921.582764	3822.817871	95.467300
729.892761	1749.743774	3928.292969	3829.334961	95.457619
730.213440	1756.110107	3928.594482	3833.120117	95.605293
730.534119	1766.390747	3936.121826	3834.775879	95.329109
730.854675	1771.036743	3941.284180	3839.808838	95.324242
731.175171	1775.725342	3945.972412	3841.701660	95.195442
731.495605	1783.597290	3952.231445	3845.939209	95.098648
731.816101	1788.436646	3954.468506	3846.154053	94.999405
732.136475	1790.307739	3957.630371	3848.541260	94.966629
732.456787	1797.340942	3961.308350	3853.230225	95.005554
732.777039	1803.900879	3962.813477	3861.144775	95.290749
733.097229	1807.621826	3969.911133	3865.963135	95.192688
733.417480	1813.644165	3973.847412	3871.920898	95.281631
733.737549	1815.558472	3973.825684	3873.834961	95.367081
734.057617	1816.268066	3964.921631	3867.167725	95.450455
734.377563	1818.461670	3945.822021	3853.187256	95.645554
734.697510	1819.666138	3920.313477	3827.592285	95.586060
735.017517	1818.268433	3893.535889	3806.600830	95.810890
735.337341	1818.719971	3861.488525	3776.575684	95.843246
735.657166	1820.462158	3826.151367	3748.464844	96.126694
735.976868	1816.547607	3791.652344	3716.331787	96.186501
736.296631	1813.084839	3753.604736	3675.552490	95.977768
736.616272	1813.213745	3716.202393	3640.795410	96.037445
736.935852	1811.278076	3682.929443	3602.382080	95.696457
737.255371	1811.815918	3650.839600	3572.507568	95.740562
737.574829	1811.643799	3622.341553	3543.643555	95.653717
737.894348	1811.407349	3606.791260	3521.963379	95.275223
738.213745	1814.203247	3598.833496	3512.994629	95.190102
738.533081	1817.063965	3588.465820	3500.799805	95.051041
738.852356	1821.601929	3593.047119	3501.466309	94.830162
739.171570	1827.516724	3600.704102	3505.165527	94.612045
739.490784	1835.560669	3604.403320	3504.090088	94.328880
739.809937	1843.583130	3611.028320	3510.972900	94.338982
740.129028	1851.089478	3604.791260	3510.585938	94.628204
740.447998	1855.305176	3598.725830	3511.381348	94.990051
740.767029	1858.983154	3595.972656	3502.369385	94.611176
741.085999	1862.682373	3588.423340	3498.627197	94.796661
741.404846	1864.101929	3573.109375	3484.775879	94.831299
741.723633	1863.327637	3551.988525	3464.773438	94.835251
742.042358	1861.714478	3528.221924	3440.125244	94.713692
742.361145	1858.617310	3494.196289	3413.239990	95.050301
742.679810	1856.509644	3461.418213	3378.182129	94.813652
742.998413	1852.638184	3425.457031	3346.543701	94.982681
743.316956	1846.250122	3390.420410	3315.744385	95.164001
743.635498	1841.324951	3362.674805	3285.396240	94.920395
743.953979	1838.141724	3338.628906	3256.468018	94.524384
744.272400	1836.464111	3308.108643	3234.185791	94.976852
744.590698	1833.302368	3283.417725	3212.505615	95.109901
744.909058	1829.388184	3260.339600	3190.760742	95.137581
745.227356	1827.409424	3239.820557	3174.070557	95.344841
745.545471	1826.742554	3222.097900	3160.068848	95.554604
745.863586	1825.409058	3203.257080	3142.389160	95.582390
746.181702	1820.806519	3183.792236	3127.720947	95.886139
746.499756	1820.118042	3175.942139	3116.235840	95.596306
746.817810	1822.569946	3166.972900	3105.782715	95.448524
747.135742	1823.430420	3161.961670	3100.233398	95.388359
747.453613	1824.548828	3153.874756	3093.587402	95.464821
747.771423	1827.086670	3149.702148	3087.758789	95.316605
748.089233	1829.581543	3145.250000	3082.468018	95.228134
748.406982	1837.389038	3144.432617	3083.908691	95.369400
748.724609	1841.045410	3145.271240	3084.188477	95.316551
749.042236	1846.572754	3143.980713	3084.296143	95.399704
749.359863	1850.121826	3147.078125	3086.360840	95.318481
749.677429	1858.208862	3152.046631	3092.318604	95.383652
749.994873	1863.779297	3154.154541	3100.018066	95.804596
750.312256	1868.812134	3155.143555	3099.265625	95.656021
750.629639	1872.103027	3156.003906	3102.298340	95.817001
750.946960	1880.189941	3156.842773	3104.019287	95.862343
751.264282	1882.168823	3154.025146	3107.955322	96.377747
751.581482	1887.266113	3152.132568	3102.341553	96.063538
751.898621	1888.406128	3150.110840	3104.600098	96.392914
752.215698	1892.427856	3147.938477	3104.105225	96.508728
752.532715	1894.256348	3147.615723	3103.159180	96.453011
752.849792	1898.020264	3148.476318	3101.351807	96.231415
753.166748	1901.031372	3146.454590	3100.642090	96.321533
753.483643	1904.773804	3142.066650	3096.448242	96.313049
753.800476	1906.128906	3139.851563	3098.340820	96.635323
754.117310	1911.591797	3139.421143	3097.459229	96.582428
754.434082	1912.387451	3135.506836	3096.061035	96.774986
754.750732	1916.517090	3139.636475	3094.469482	96.307228
755.067383	1920.689575	3141.378662	3102.083496	96.780907
755.383911	1923.765259	3137.077148	3095.545166	96.576973
755.700562	1925.507324	3139.120117	3089.781006	95.934525
756.016968	1927.314087	3137.313477	3086.834229	95.828156
756.333435	1931.400757	3130.818115	3085.995361	96.262955
756.649780	1933.981934	3129.010986	3081.801025	96.049469
756.966064	1936.562866	3129.484619	3080.811768	95.919861
757.282410	1940.885620	3129.742432	3085.328369	96.264137
757.598633	1945.940186	3132.732178	3087.092285	96.154350
757.914795	1951.403076	3138.883545	3096.770508	96.453583
758.230896	1957.575806	3146.303955	3105.997803	96.609306
758.546936	1962.092651	3158.283691	3112.062744	96.135986
758.862976	1970.932495	3168.198975	3120.429688	96.010139
759.178894	1979.664795	3177.253662	3136.367188	96.585938
759.494812	1988.332764	3188.308838	3145.034912	96.393768
759.810669	1994.247314	3199.622070	3158.907227	96.622223
760.126526	2002.269653	3208.569580	3168.327881	96.664040
760.442261	2008.829590	3214.806885	3178.479736	96.987740
760.757935	2013.389160	3224.119629	3182.630615	96.573227
761.073608	2015.905762	3225.711670	3189.340820	96.993660
761.389160	2018.207031	3227.905518	3190.545898	96.911659
761.704712	2024.917603	3230.164063	3189.427246	96.620041
762.020203	2029.025513	3229.217285	3195.406494	97.182884
762.335571	2033.348755	3242.917969	3207.967285	97.110481
762.650940	2045.221191	3264.253906	3228.937500	97.102913
762.966370	2069.826416	3312.926514	3283.589600	97.640022
763.281677	2110.368896	3394.571045	3368.567871	97.975151
763.596863	2154.266602	3499.401367	3481.097900	98.639282
763.911987	2199.627197	3606.425537	3585.971191	98.546036
764.227112	2239.911865	3690.006104	3667.400635	98.441101
764.542236	2273.378174	3756.508545	3732.311768	98.368530
764.857178	2297.596436	3808.837646	3780.618652	98.132729
765.172119	2311.985352	3837.636719	3813.999268	98.450668
765.487061	2324.567383	3858.413330	3833.291992	98.362198
765.801880	2333.579590	3864.199219	3840.992188	98.483818
766.116760	2329.127197	3845.895996	3823.957275	98.553589
766.431458	2312.781006	3798.449463	3775.306152	98.442230
766.746155	2276.217529	3709.492188	3684.327393	98.244247
767.060791	2232.878906	3593.026367	3566.334229	98.037552
767.375427	2185.518066	3471.462402	3446.707031	98.074928
767.689941	2143.964600	3367.729004	3347.253906	98.326874
768.004395	2109.250732	3278.169434	3260.081299	98.452576
768.318848	2084.258301	3200.246094	3183.770996	98.523720
768.633179	2062.449219	3138.819336	3122.322510	98.467361
768.947632	2041.629395	3083.199219	3067.821045	98.523560
769.261841	2020.831177	3027.923584	3017.943848	99.009056
769.576111	2006.678955	2983.724365	2973.787842	98.983002
769.890259	1989.106689	2941.031250	2932.836670	99.139160
770.204285	1975.750122	2907.843994	2896.272949	98.758598
770.518433	1961.920410	2873.883057	2860.526367	98.535393
770.832458	1952.607422	2845.836670	2831.490479	98.393898
771.146362	1943.423706	2820.134521	2801.895508	97.919609
771.460205	1933.056763	2796.303711	2776.343750	97.687805
771.774109	1919.915283	2772.106934	2755.846924	98.091980
772.087952	1911.527344	2752.814209	2736.317383	98.039093
772.401672	1906.257813	2728.961670	2718.358154	98.711136
772.715332	1899.999146	2712.916748	2699.625000	98.364929
773.028992	1892.600342	2696.527588	2686.160889	98.710495
773.342590	1889.029785	2679.643555	2669.320068	98.694244
773.656128	1883.308716	2663.641846	2653.382813	98.685303
773.969604	1882.491455	2651.618896	2639.724854	98.453568
774.283020	1878.211426	2633.035889	2624.540283	98.874489
774.596375	1872.275024	2618.776123	2611.936523	99.083778
774.909729	1869.930542	2604.322510	2600.816895	99.522652
775.223022	1867.220581	2592.988037	2589.202637	99.478432
775.536194	1863.198730	2577.394775	2576.319336	99.849419
775.849304	1855.670776	2568.318359	2564.468506	99.459778
776.162476	1850.422729	2556.790039	2551.821533	99.296608
776.475525	1848.530029	2546.122070	2541.002930	99.266167
776.788513	1845.002808	2538.701660	2534.270996	99.361298
777.101440	1843.153198	2527.668213	2526.183838	99.783150
777.414307	1839.561279	2518.742432	2522.032959	100.484482
777.727173	1836.227661	2514.161133	2518.441162	100.631332
778.039978	1838.034058	2506.654541	2512.612305	100.891052
778.352722	1836.076904	2499.858154	2502.482178	100.395317
778.665405	1835.302612	2495.126465	2496.653564	100.231438
778.977966	1834.872559	2493.212158	2492.244385	99.852997
779.290649	1836.442871	2491.233643	2486.501709	99.277336
779.603149	1840.034424	2487.964600	2485.770508	99.661369
779.915588	1839.238647	2485.254150	2481.081543	99.354103
780.227966	1840.120361	2478.371582	2476.650879	99.730400
780.540405	1838.744019	2478.543457	2472.392334	99.038589
780.852722	1835.496460	2476.543457	2463.616943	97.983528
781.164917	1834.592896	2467.983398	2455.874023	98.088165
781.477173	1832.033325	2461.509277	2451.464844	98.404320
781.789246	1829.624634	2456.046387	2447.980713	98.712418
782.101379	1827.323120	2448.131348	2440.043945	98.697281
782.413452	1823.838989	2439.441895	2430.021484	98.469727
782.725403	1822.591675	2429.354736	2421.934570	98.777092
783.037292	1816.784424	2421.999268	2411.245117	98.223083
783.349182	1815.794922	2409.911621	2402.254883	98.711243
783.661072	1809.579224	2401.222168	2390.812500	98.240547
783.972839	1804.868652	2387.263672	2380.875488	98.903122
784.284546	1804.739746	2378.101074	2374.229492	99.324760
784.596191	1801.664063	2370.938965	2363.174316	98.636047
784.907898	1797.104370	2363.884277	2354.248535	98.299911
785.219421	1795.104248	2357.883545	2347.795898	98.207527
785.530884	1795.211670	2350.872070	2340.956787	98.215584
785.842346	1793.276123	2343.709961	2336.805664	98.745667
786.153748	1790.522949	2338.892090	2330.245605	98.423233
786.465149	1789.232300	2331.643799	2322.588867	98.330612
786.776428	1784.156616	2330.697510	2317.964600	97.670273
787.087646	1785.490112	2327.385254	2316.329834	97.959862
787.398804	1789.339844	2330.976807	2320.739258	98.109886
787.709961	1790.759644	2338.977783	2328.073486	98.010956
788.021057	1800.373535	2356.098389	2342.656006	97.581108
788.332031	1810.288696	2372.960693	2357.152344	97.190483
788.643005	1817.429565	2386.016113	2370.616211	97.291550
788.953918	1820.397583	2399.824219	2385.005127	97.442459
789.264832	1826.333862	2412.987061	2397.114258	97.294350
789.575623	1831.344971	2423.225098	2407.911133	97.412659
789.886353	1835.711304	2428.795898	2417.783203	98.143150
790.197083	1839.690308	2433.312500	2421.461182	98.003555
790.507690	1840.830200	2432.882080	2422.063721	98.172737
790.818359	1839.883667	2430.000244	2414.793945	97.423172
791.128845	1834.033569	2417.439453	2402.857178	97.500496
791.439331	1825.021606	2397.372314	2386.468018	98.094826
791.749756	1813.493408	2376.122314	2366.336182	98.260643
792.060120	1803.513794	2354.442139	2346.183350	98.500931
792.370483	1794.286987	2334.676270	2325.600098	98.320435
792.680786	1784.500732	2314.157715	2304.995361	98.270134
792.990967	1776.564331	2292.499023	2287.229736	98.978691
793.301086	1769.896606	2278.476074	2272.238525	98.773537
793.611267	1764.067993	2265.033447	2259.505859	98.896614
793.921326	1759.529785	2255.290039	2248.084961	98.546661
794.231323	1754.927246	2244.105713	2240.234619	99.208656
794.541260	1753.980835	2236.771729	2231.609619	98.930779
794.851074	1751.786743	2231.502197	2227.910400	99.251266
795.161011	1751.528931	2228.921143	2228.942871	100.004555
795.470764	1754.389404	2235.287354	2231.244141	99.159233
795.780518	1759.572754	2239.739990	2235.997314	99.220551
796.090149	1766.197388	2247.396729	2245.095459	99.521767
796.399780	1772.499268	2258.581055	2252.171631	98.681412
796.709412	1774.069214	2264.280518	2256.258057	98.363472
797.018860	1780.285156	2268.474609	2262.882568	98.854538
797.328308	1782.737061	2277.400635	2265.441895	97.582451
797.637756	1785.447144	2283.745361	2268.560547	96.952667
797.947205	1786.630005	2284.154053	2270.001709	97.155449
798.256470	1786.974121	2284.003662	2272.174072	97.619942
798.565674	1787.748413	2281.400879	2268.668213	97.420723
798.874817	1783.619019	2271.808350	2265.614014	98.731163
799.183960	1780.306641	2263.377197	2257.505615	98.784531
799.493103	1774.843628	2252.300537	2242.815430	98.013412
799.802124	1768.068481	2240.364014	2230.233398	97.855026
800.111084	1765.423096	2231.007813	2221.995850	98.064377
800.419983	1757.594238	2220.597900	2210.897461	97.904892
800.728821	1752.002075	2205.671387	2202.659912	99.336197
801.037659	1750.432007	2192.680420	2192.529541	99.965881
801.346436	1747.657471	2185.152588	2186.163574	100.231087
801.655151	1742.603027	2176.721436	2172.785400	99.093330
801.963745	1741.591919	2167.816895	2164.096191	99.127060
802.272400	1741.463013	2161.794678	2150.223389	97.247108
802.580933	1737.268799	2153.707520	2141.921387	97.169777
802.889404	1734.343750	2144.631348	2136.329102	97.976479
803.197815	1729.095825	2138.264893	2128.693848	97.660858
803.506226	1725.095581	2133.769775	2119.316162	96.463295
803.814575	1721.826294	2127.876465	2111.573242	95.984924
804.122864	1719.697144	2125.983643	2108.390137	95.669678
804.431030	1715.395386	2124.499756	2105.035156	95.242142
804.739197	1712.749878	2121.488525	2100.819580	94.943237
805.047241	1713.330566	2120.800293	2101.572021	95.281052
805.355408	1710.276489	2122.757568	2102.389648	95.062096
805.663391	1708.082764	2125.682617	2108.239746	95.823067
805.971313	1711.201294	2130.242432	2112.885254	95.857880
806.279175	1714.319946	2137.211182	2118.563477	95.590424
806.587036	1716.363281	2140.802979	2124.801025	96.229866
806.894836	1720.126953	2140.845947	2130.565186	97.556381
807.202576	1724.278198	2142.029053	2133.188965	97.883888
807.510193	1724.471802	2142.308350	2133.554688	97.905006
807.817810	1725.396484	2135.447266	2132.006104	99.160797
808.125427	1725.224487	2131.231934	2130.543213	99.830368
808.432922	1721.933594	2127.898193	2125.833008	99.491287
808.740295	1718.040649	2119.531494	2118.993896	99.866096
809.047729	1717.632080	2107.551270	2109.121338	100.402664
809.355103	1711.997192	2094.883057	2099.012939	101.078621
809.662415	1704.103516	2085.247559	2086.753174	100.395027
809.969604	1702.103394	2072.256836	2072.622559	100.098801
810.276794	1697.048950	2061.631836	2063.890381	100.619484
810.583923	1689.972778	2053.394043	2054.469727	100.295990
810.890991	1685.821777	2045.887817	2044.898560	99.725258
811.197998	1681.670654	2042.532715	2036.381226	98.295334
811.505005	1678.207886	2036.574951	2027.713623	97.527306
811.811829	1677.541138	2028.573853	2019.863281	97.518585
812.118713	1675.046387	2022.917236	2012.980591	97.143585
812.425537	1671.669800	2017.002441	2006.463623	96.948212
812.732300	1667.927246	2014.357056	1996.849609	94.946320
813.038940	1665.281738	2007.947754	1993.300781	95.725586
813.345581	1662.550049	2005.667847	1991.107056	95.756332
813.652100	1659.560425	2000.721069	1983.536255	94.962837
813.958740	1655.753540	1994.419067	1980.223755	95.808456
814.265137	1654.699585	1989.364746	1975.319946	95.803329
814.571533	1651.064941	1985.213745	1970.911011	95.719650
814.877930	1647.687988	1978.890503	1967.103882	96.441261
815.184265	1642.418701	1974.631714	1963.727295	96.717644
815.490540	1640.332397	1971.986206	1961.339844	96.789917
815.796692	1638.417969	1970.760254	1961.081543	97.087730
816.102844	1639.880737	1969.448120	1963.683960	98.250992
816.408936	1640.934326	1967.319092	1960.350464	97.864906
816.714966	1639.321411	1963.705566	1958.651245	98.441872
817.020935	1640.224609	1964.114380	1959.748169	98.651947
817.326843	1644.332764	1969.319214	1959.769897	97.061623
817.632690	1644.784424	1974.051147	1963.985474	96.943001
817.938477	1646.569580	1978.933228	1970.115234	97.346886
818.244263	1651.344482	1986.310547	1973.620972	96.211685
818.549988	1655.624512	1993.666504	1979.750854	95.883453
818.855652	1664.614746	2002.420288	1988.891724	95.995163
819.161194	1673.196533	2017.282349	2001.129761	95.305649
819.466797	1682.531250	2035.585571	2020.830933	95.820862
819.772278	1697.113647	2064.341797	2047.565308	95.431587
820.077698	1716.857910	2098.711670	2080.085693	95.122223
820.383057	1736.817505	2138.243408	2120.822021	95.660126
820.688354	1759.551514	2182.098389	2166.418945	96.289299
820.993652	1794.373047	2239.266846	2225.587646	96.925285
821.298828	1849.239868	2335.816162	2321.685547	97.095909
821.604004	1957.984497	2530.765381	2513.257568	96.943367
821.909058	2141.426758	2852.417969	2837.168945	97.855247
822.214111	2372.982178	3276.234131	3262.232178	98.449829
822.519165	2622.045410	3728.139160	3717.578857	99.045265
822.824036	2852.590088	4134.684570	4129.823730	99.620865
823.128906	3047.818604	4480.727051	4469.843750	99.240479
823.433716	3204.956299	4764.031250	4755.449219	99.449547
823.738525	3333.811035	4996.641113	4985.155762	99.309288
824.043213	3437.909912	5184.965332	5173.995605	99.372101
824.347900	3516.478760	5324.487793	5312.787109	99.352844
824.652466	3560.140381	5400.970703	5389.355957	99.369049
824.957031	3532.158447	5357.825684	5352.318359	99.698341
825.261536	3423.585693	5163.371094	5159.628418	99.784874
825.565979	3249.542725	4848.858887	4844.342285	99.717590
825.870300	3048.249023	4486.792480	4479.802734	99.514107
826.174622	2863.623535	4162.429688	4148.901367	98.958405
826.478821	2716.530029	3907.107666	3900.418701	99.438171
826.783142	2622.389404	3735.882568	3727.365479	99.235100
827.087280	2566.619141	3632.514648	3622.406006	99.051628
827.391357	2532.292236	3564.441406	3555.924805	99.174866
827.695435	2504.052246	3512.069580	3499.982178	98.800873
827.999451	2473.704346	3458.062744	3447.609619	98.938080
828.303406	2449.722900	3408.035156	3395.861572	98.729683
828.607239	2422.622559	3363.277100	3347.661865	98.339958
828.911011	2400.340332	3317.550781	3300.366211	98.126434
829.214844	2377.778320	3273.803711	3257.070313	98.132484
829.518616	2349.990234	3221.087402	3204.182129	98.059311
829.822205	2310.307861	3143.981201	3124.365723	97.647102
830.125793	2246.235352	3029.880615	3012.867920	97.829033
830.429382	2162.999268	2886.852539	2870.119141	97.688286
830.732849	2077.978027	2735.048584	2715.755859	97.063828
831.036316	1998.312134	2597.225098	2579.093750	96.972626
831.339661	1931.916870	2478.156494	2461.294189	96.913017
831.642944	1874.963379	2376.767822	2359.647461	96.588242
831.946228	1826.355347	2293.552979	2275.830566	96.206657
832.249512	1789.210938	2229.093506	2212.403320	96.205765
832.552673	1762.218384	2179.517334	2162.504395	95.923080
832.855774	1744.603394	2150.331055	2134.844971	96.183136
833.158813	1744.388306	2141.878418	2133.726563	97.949165
833.461731	1761.465576	2169.150635	2159.321289	97.588989
833.764771	1792.566284	2216.683350	2206.402344	97.575905
834.067627	1828.678223	2274.453857	2267.786133	98.504242
834.370422	1863.521118	2330.224365	2326.782959	99.262611
834.673157	1895.202637	2384.897461	2375.692139	98.120193
834.975891	1919.463745	2426.300781	2421.267822	99.006989
835.278564	1941.595581	2461.617188	2459.014648	99.499535
835.581177	1955.188599	2485.383301	2482.157227	99.391533
835.883728	1963.296997	2501.449951	2499.234375	99.588303
836.186218	1962.845337	2501.858398	2497.341797	99.162064
836.488647	1949.682495	2482.694580	2472.284912	98.047012
836.791077	1918.388184	2430.537598	2421.482666	98.231972
837.093384	1879.953247	2358.593506	2352.119385	98.647392
837.395630	1831.882813	2283.444336	2271.743896	97.408897
837.697815	1787.984863	2209.714844	2195.906494	96.725784
838.000061	1746.109009	2140.351318	2127.209961	96.666679
838.302124	1713.395020	2077.698242	2063.029785	95.973557
838.604126	1681.778198	2021.906372	2003.065308	94.460602
838.906128	1653.387817	1971.297974	1954.177612	94.614716
839.208069	1629.255737	1927.894653	1911.075684	94.368126
839.510010	1614.049316	1895.783325	1877.264893	93.426979
839.811829	1602.564087	1873.436401	1856.660156	93.806587
840.113586	1595.337402	1860.596191	1843.045654	93.383614
840.415222	1589.250732	1854.724487	1837.259888	93.421349
840.716919	1588.153809	1848.680786	1835.496216	94.939270
841.018555	1584.669434	1844.207153	1834.657349	96.320457
841.320068	1587.228882	1840.270996	1834.141113	97.577522
841.621521	1584.884399	1839.905151	1833.538940	97.503647
841.922974	1584.669434	1837.496582	1833.087158	98.255951
842.224365	1581.486328	1836.507080	1830.183716	97.520454
842.525635	1580.367920	1829.796509	1822.118286	96.921677
842.826965	1575.205933	1815.300049	1810.848022	98.145714
843.128174	1562.042969	1796.114868	1791.791748	98.153084
843.429260	1550.062988	1774.564087	1770.972168	98.400047
843.730408	1537.050659	1751.808472	1745.527832	97.075478
844.031433	1523.134888	1728.859375	1721.159302	96.257095
844.332397	1514.166016	1708.362183	1699.242676	95.303970
844.633362	1501.132324	1689.413574	1680.638184	95.339211
844.934204	1490.485840	1670.378906	1661.754272	95.205688
845.235046	1481.495483	1652.462891	1645.494141	95.923927
845.535828	1475.924927	1636.116699	1632.352783	97.650368
845.836487	1466.848511	1625.061401	1619.125366	96.248070
846.137146	1458.696899	1616.716431	1610.113403	95.821388
846.437744	1452.437988	1608.263672	1599.832520	94.589371
846.738281	1447.577026	1599.789551	1588.196777	92.383827
847.038757	1441.984985	1591.508911	1580.131226	92.390724
847.339172	1438.350098	1582.497192	1573.829346	93.986801
847.639526	1433.231323	1576.689819	1566.344482	92.788620
847.939819	1429.703979	1571.979614	1561.849487	92.879929
848.240112	1428.284424	1570.302002	1557.397217	90.913246
848.540283	1425.251831	1569.205078	1552.450317	88.360970
848.840393	1424.499146	1570.624512	1548.277710	84.707100
849.140564	1420.412598	1567.936035	1546.083862	85.187325
849.440552	1419.036011	1564.043091	1541.653198	84.559448
849.740540	1419.294189	1560.580444	1540.771484	85.979553
850.040405	1416.863770	1562.344116	1539.523926	84.313904
850.340210	1417.358398	1559.139526	1537.910889	85.027176
850.640137	1417.380005	1556.988403	1534.405151	83.823860
850.939819	1416.024902	1553.869873	1531.415527	83.710434
851.239502	1417.530518	1549.202759	1528.834717	84.531258
851.539185	1414.885132	1545.438721	1527.200073	86.029762
851.838745	1414.863403	1543.890259	1526.533203	86.547722
852.138245	1411.314575	1536.190308	1523.457520	89.803635
852.437744	1412.045898	1532.598511	1520.145264	89.669868
852.737122	1410.927490	1528.555054	1517.499634	90.601334
853.036499	1408.970215	1525.651489	1513.886353	89.916862
853.335815	1410.669434	1518.682861	1512.596069	94.364784
853.635010	1409.443481	1517.478394	1511.369995	94.345901
853.934204	1408.518677	1517.736328	1510.251587	93.146950
854.233276	1407.077637	1515.478149	1509.584839	94.563393
854.532410	1403.206177	1514.230591	1504.939087	91.631119
854.831482	1400.990723	1513.628418	1502.659302	90.261597
855.130371	1398.237671	1508.208252	1500.615967	93.096077
855.429260	1398.581909	1509.326660	1498.852295	90.541885
855.728088	1397.248413	1509.455933	1498.852295	90.549973
856.026855	1395.957886	1508.681641	1496.873779	89.524956
856.325623	1396.495728	1506.917847	1497.368408	91.351875
856.624329	1393.054443	1508.487915	1495.389526	88.652870
856.922913	1392.538208	1505.713379	1493.195801	88.939644
857.221436	1389.935669	1502.487183	1493.561401	92.069603
857.519958	1390.796021	1502.250488	1492.808594	91.528473
857.818420	1394.280151	1502.659302	1491.496582	89.700310
858.116821	1395.871826	1501.046143	1491.324585	90.756721
858.415161	1396.108398	1502.444214	1490.421143	88.693298
858.713379	1397.656982	1498.357544	1487.582153	89.299576
859.011658	1397.592529	1495.496948	1487.990723	92.333107
859.309814	1397.162231	1494.722778	1487.001465	92.085617
859.607910	1396.087036	1493.776489	1487.001465	93.064735
859.905945	1396.065430	1491.152344	1485.538818	94.096428
860.203979	1394.774902	1491.647217	1483.904297	92.007088
860.501953	1395.377197	1493.131226	1481.624390	88.228783
860.799744	1395.162231	1489.001709	1478.634766	88.952469
861.097656	1392.258667	1487.668091	1477.645386	89.495056
861.395325	1388.752808	1486.291626	1475.343872	88.776001
861.693115	1386.924561	1484.721558	1474.075073	89.113693
861.990784	1384.214478	1486.678833	1475.021362	88.622902
862.288330	1384.515747	1485.603394	1470.397339	84.957558
862.585815	1382.988525	1484.850708	1470.913452	86.317535
862.883301	1381.461670	1483.237427	1466.762451	83.812477
863.180786	1379.676270	1482.119141	1463.106079	81.440331
863.478149	1379.052612	1479.710083	1462.353271	82.756561
863.775452	1380.816284	1477.000122	1460.223999	82.558273
864.072693	1380.063599	1478.957520	1460.890747	81.731163
864.369873	1378.385864	1477.236816	1463.385620	85.987801
864.667114	1382.278931	1478.011108	1464.353516	85.733543
864.964111	1385.526611	1479.495239	1464.353394	83.886276
865.261169	1385.741821	1477.559448	1463.686646	84.890915
865.558105	1386.085815	1478.484253	1464.891113	85.288559
865.855042	1386.623535	1479.710327	1465.106201	84.311279
866.151917	1386.558960	1479.387695	1466.031006	85.611473
866.448730	1387.311646	1479.215698	1469.515259	89.445038
866.745422	1388.300903	1479.581177	1469.343262	88.784088
867.042114	1384.881226	1478.871582	1467.299927	87.688469
867.338806	1383.504639	1476.828247	1465.579468	87.946480
867.635376	1384.429565	1473.279419	1462.998535	88.428925
867.931824	1381.697998	1470.418823	1462.826416	91.442360
868.228271	1377.482544	1468.289551	1461.622070	92.657524
868.524658	1376.987793	1467.644287	1462.181152	93.973808
868.821045	1375.654297	1464.762207	1459.965820	94.617325
869.117310	1372.944336	1463.235229	1458.223755	94.449631
869.413574	1373.718628	1464.590088	1458.782959	93.609512
869.709717	1373.309937	1463.858887	1459.127075	94.774307
870.005859	1372.535645	1463.321167	1459.019409	95.261627
870.301880	1374.751099	1464.073975	1462.331787	98.049561
870.597900	1373.482178	1465.471924	1463.987793	98.386635
870.893860	1372.944458	1469.988647	1464.461060	94.304054
871.189636	1372.858521	1471.795288	1466.031250	94.174019
871.485535	1375.181274	1473.128784	1466.891602	93.632118
871.781311	1373.159546	1473.838379	1466.719482	92.929100
872.077026	1372.944336	1476.053711	1466.504395	90.738655
872.372681	1373.116333	1476.914063	1469.450928	92.809921
872.668274	1372.557129	1475.623535	1469.407959	93.969345
872.963806	1373.180908	1475.322388	1470.934937	95.704536
873.259338	1372.987305	1476.806519	1473.924561	97.224060
873.554688	1371.202026	1477.107666	1472.741577	95.877380
873.850098	1372.965698	1475.989258	1472.978271	97.077377
874.145447	1374.170166	1474.548218	1473.795410	99.250031
874.440674	1374.815430	1472.956665	1474.376221	101.446442
874.735840	1375.740356	1470.762817	1472.139404	101.448700
875.031006	1375.310181	1471.816772	1469.364746	97.459213
875.326050	1376.858887	1473.322266	1471.580200	98.194069
875.621094	1378.493530	1472.999756	1467.429199	94.105621
875.916077	1378.041870	1472.397461	1467.816284	95.144775
876.210999	1377.955688	1474.505249	1464.934082	90.086784
876.505798	1377.288940	1473.386719	1461.148682	87.265015
876.800598	1377.891113	1472.096313	1459.729126	86.872078
877.095337	1378.450317	1474.225586	1458.696899	83.786331
877.390015	1380.256958	1476.441040	1457.599976	80.411453
877.684692	1383.956421	1477.709961	1455.793335	76.623146
877.979187	1384.063965	1475.107544	1457.944214	81.148224
878.273804	1385.999634	1474.612793	1462.783447	86.650574
878.568237	1385.462036	1472.074829	1465.557983	92.475883
878.862610	1389.720703	1475.301147	1469.580078	93.314980
879.156921	1391.548828	1481.366455	1471.408081	88.912674
879.451172	1393.570557	1484.979614	1476.118408	90.305984
879.745422	1397.377441	1492.400024	1485.603394	92.847351
880.039612	1404.453613	1503.562622	1498.271606	94.661415
880.333679	1414.175293	1517.392212	1513.348755	96.082565
880.627686	1426.692871	1541.588989	1537.007690	96.012657
880.921692	1448.071899	1581.056152	1573.313232	94.177567
881.215698	1485.151855	1648.505371	1636.331665	92.547630
881.509460	1540.857544	1743.699951	1726.859253	91.697647
881.803345	1615.834473	1867.951904	1846.831177	91.622665
882.097046	1697.027344	2007.667969	1988.999268	93.990257
882.390808	1781.962769	2147.577881	2128.650635	94.823174
882.684448	1864.316895	2284.390625	2264.474365	95.258865
882.978027	1938.240112	2405.029053	2386.209961	95.968391
883.271545	2002.420044	2512.375732	2493.320068	96.263268
883.565002	2054.275879	2604.021729	2582.750244	96.130669
883.858398	2095.011963	2674.782959	2654.415283	96.486946
884.151733	2119.531494	2717.541016	2700.205566	97.101143
884.445068	2122.865479	2726.273438	2710.400635	97.369476
884.738281	2102.690674	2690.333740	2675.148682	97.415939
885.031433	2051.652100	2612.775635	2599.397461	97.615822
885.324585	1987.816040	2503.751221	2488.760010	97.094360
885.617676	1917.505981	2386.231201	2373.046875	97.187195
885.910645	1845.475830	2264.646240	2254.946045	97.685860
886.203552	1777.919189	2154.202393	2143.577393	97.176331
886.496521	1716.234253	2049.866943	2038.854736	96.699303
886.789368	1661.582153	1953.898071	1945.724976	97.204018
887.082153	1610.737183	1865.629028	1858.724976	97.291382
887.374817	1567.570679	1788.802368	1784.350098	97.987511
887.667480	1530.146606	1719.998047	1716.578247	98.198700
887.960083	1495.884277	1663.797607	1663.668457	99.923088
888.252625	1474.569824	1620.888794	1619.619995	99.132851
888.545166	1457.858154	1588.239746	1588.863403	100.478333
888.837524	1442.092651	1563.978638	1564.451660	100.388084
889.129883	1430.650513	1542.836304	1544.083618	101.111832
889.422241	1421.100952	1526.576172	1527.264404	100.652504
889.714478	1416.218750	1510.144165	1500.207397	89.420578
890.006714	1430.177124	1493.819580	1498.314697	107.063080
890.298767	1380.493774	1503.756104	1492.163330	90.595039
890.590881	1384.515625	1464.009399	1482.226563	122.916466
890.882935	1380.020264	1486.011963	1478.914551	93.303802
>>>>>End Processed Spectral Data<<<<<
